{
  "resourceType": "Bundle",
  "type": "transaction",
  "entry": [
    {
      "request": {
        "method": "POST",
        "url": "Organization"
      },
      "resource": {
        "identifier": [
          {
            "system": "http://epic.com",
            "value": "org-1"
          }
        ],
        "name": "Epic",
        "resourceType": "Organization",
        "type": [
          {
            "coding": [
              {
                "code": "pay",
                "system": "http://terminology.hl7.org/CodeSystem/organization-type"
              }
            ]
          }
        ]
      }
    },
    {
      "fullUrl": "urn:uuid:05efabf0-4be2-4561-91ce-51548425acb9",
      "request": {
        "method": "POST",
        "url": "Patient"
      },
      "resource": {
        "active": true,
        "address": [
          {
            "city": "Tulsa",
            "country": "USA",
            "line": [
              "1 Hill AveApt 14"
            ],
            "postalCode": "74117",
            "state": "OK",
            "use": "home"
          }
        ],
        "birthDate": "1925-12-23",
        "gender": "male",
        "identifier": [
          {
            "system": "http://epic.com",
            "type": {
              "coding": [
                {
                  "code": "MR",
                  "display": "Medical record number",
                  "system": "http://hl7.org/fhir/v2/0203",
                  "userSelected": false
                }
              ],
              "text": "Medical record number"
            },
            "value": "pat1"
          }
        ],
        "name": [
          {
            "family": "Adams",
            "given": [
              "Daniel",
              "X."
            ],
            "use": "official"
          }
        ],
        "resourceType": "Patient",
        "telecom": [
          {
            "system": "email",
            "value": "daniel.adams@example.com"
          }
        ]
      }
    },
    {
      "fullUrl": "urn:uuid:b79cb3ba-745e-5d9a-8903-4a02327a7e09",
      "resource": {
        "resourceType": "Encounter",
        "status": "finished",
        "class": {
          "system": "http://hl7.org/fhir/v3/ActCode",
          "code": "AMB"
        },
        "subject": {
          "reference": "urn:uuid:05efabf0-4be2-4561-91ce-51548425acb9"
        },
        "period": {
          "start": "1997-04-30T00:00:00-06:00",
          "end": "1997-04-30T00:00:00-06:00"
        }
      },
      "request": {
        "method": "POST",
        "url": "Encounter"
      }
    },
    {
      "fullUrl": "urn:uuid:fb3463a0-7d6e-54a3-bcd8-1b93388c648d",
      "resource": {
        "resourceType": "Encounter",
        "status": "finished",
        "class": {
          "system": "http://hl7.org/fhir/v3/ActCode",
          "code": "AMB"
        },
        "subject": {
          "reference": "urn:uuid:05efabf0-4be2-4561-91ce-51548425acb9"
        },
        "period": {
          "start": "1997-05-01T00:00:00-06:00",
          "end": "1997-05-01T00:00:00-06:00"
        }
      },
      "request": {
        "method": "POST",
        "url": "Encounter"
      }
    },
    {
      "fullUrl": "urn:uuid:efe7eedd-89c5-56f5-984c-0712ee41a2eb",
      "resource": {
        "resourceType": "Encounter",
        "status": "finished",
        "class": {
          "system": "http://hl7.org/fhir/v3/ActCode",
          "code": "AMB"
        },
        "subject": {
          "reference": "urn:uuid:05efabf0-4be2-4561-91ce-51548425acb9"
        },
        "period": {
          "start": "1997-05-07T00:00:00-06:00",
          "end": "1997-05-07T00:00:00-06:00"
        }
      },
      "request": {
        "method": "POST",
        "url": "Encounter"
      }
    },
    {
      "fullUrl": "urn:uuid:c40b683b-ac7b-5d6b-b0eb-549cb20169b9",
      "resource": {
        "resourceType": "Encounter",
        "status": "finished",
        "class": {
          "system": "http://hl7.org/fhir/v3/ActCode",
          "code": "AMB"
        },
        "subject": {
          "reference": "urn:uuid:05efabf0-4be2-4561-91ce-51548425acb9"
        },
        "period": {
          "start": "1999-12-20T00:00:00-07:00",
          "end": "1999-12-20T00:00:00-07:00"
        }
      },
      "request": {
        "method": "POST",
        "url": "Encounter"
      }
    },
    {
      "fullUrl": "urn:uuid:440c0655-0bf6-51b6-a1fa-527f475a6fbc",
      "resource": {
        "resourceType": "Encounter",
        "status": "finished",
        "class": {
          "system": "http://hl7.org/fhir/v3/ActCode",
          "code": "AMB"
        },
        "subject": {
          "reference": "urn:uuid:05efabf0-4be2-4561-91ce-51548425acb9"
        },
        "period": {
          "start": "1999-12-21T00:00:00-07:00",
          "end": "1999-12-21T00:00:00-07:00"
        }
      },
      "request": {
        "method": "POST",
        "url": "Encounter"
      }
    },
    {
      "resource": {
        "resourceType": "Encounter",
        "status": "finished",
        "class": {
          "system": "http://hl7.org/fhir/v3/ActCode",
          "code": "AMB"
        },
        "subject": {
          "reference": "urn:uuid:05efabf0-4be2-4561-91ce-51548425acb9"
        },
        "period": {
          "start": "2001-01-19T00:00:00-07:00",
          "end": "2001-01-19T00:00:00-07:00"
        }
      },
      "request": {
        "method": "POST",
        "url": "Encounter"
      }
    },
    {
      "resource": {
        "resourceType": "Encounter",
        "status": "finished",
        "class": {
          "system": "http://hl7.org/fhir/v3/ActCode",
          "code": "AMB"
        },
        "subject": {
          "reference": "urn:uuid:05efabf0-4be2-4561-91ce-51548425acb9"
        },
        "period": {
          "start": "2001-01-24T00:00:00-07:00",
          "end": "2001-01-24T00:00:00-07:00"
        }
      },
      "request": {
        "method": "POST",
        "url": "Encounter"
      }
    },
    {
      "resource": {
        "resourceType": "Encounter",
        "status": "finished",
        "class": {
          "system": "http://hl7.org/fhir/v3/ActCode",
          "code": "AMB"
        },
        "subject": {
          "reference": "urn:uuid:05efabf0-4be2-4561-91ce-51548425acb9"
        },
        "period": {
          "start": "2001-01-25T00:00:00-07:00",
          "end": "2001-01-25T00:00:00-07:00"
        }
      },
      "request": {
        "method": "POST",
        "url": "Encounter"
      }
    },
    {
      "resource": {
        "resourceType": "Encounter",
        "status": "finished",
        "class": {
          "system": "http://hl7.org/fhir/v3/ActCode",
          "code": "AMB"
        },
        "subject": {
          "reference": "urn:uuid:05efabf0-4be2-4561-91ce-51548425acb9"
        },
        "period": {
          "start": "2001-10-31T00:00:00-07:00",
          "end": "2001-10-31T00:00:00-07:00"
        }
      },
      "request": {
        "method": "POST",
        "url": "Encounter"
      }
    },
    {
      "resource": {
        "resourceType": "Encounter",
        "status": "finished",
        "class": {
          "system": "http://hl7.org/fhir/v3/ActCode",
          "code": "AMB"
        },
        "subject": {
          "reference": "urn:uuid:05efabf0-4be2-4561-91ce-51548425acb9"
        },
        "period": {
          "start": "2001-11-01T00:00:00-07:00",
          "end": "2001-11-01T00:00:00-07:00"
        }
      },
      "request": {
        "method": "POST",
        "url": "Encounter"
      }
    },
    {
      "resource": {
        "resourceType": "Encounter",
        "status": "finished",
        "class": {
          "system": "http://hl7.org/fhir/v3/ActCode",
          "code": "AMB"
        },
        "subject": {
          "reference": "urn:uuid:05efabf0-4be2-4561-91ce-51548425acb9"
        },
        "period": {
          "start": "2001-11-02T00:00:00-07:00",
          "end": "2001-11-02T00:00:00-07:00"
        }
      },
      "request": {
        "method": "POST",
        "url": "Encounter"
      }
    },
    {
      "resource": {
        "resourceType": "Encounter",
        "status": "finished",
        "class": {
          "system": "http://hl7.org/fhir/v3/ActCode",
          "code": "AMB"
        },
        "subject": {
          "reference": "urn:uuid:05efabf0-4be2-4561-91ce-51548425acb9"
        },
        "period": {
          "start": "2001-11-05T00:00:00-07:00",
          "end": "2001-11-05T00:00:00-07:00"
        }
      },
      "request": {
        "method": "POST",
        "url": "Encounter"
      }
    },
    {
      "resource": {
        "resourceType": "Encounter",
        "status": "finished",
        "class": {
          "system": "http://hl7.org/fhir/v3/ActCode",
          "code": "AMB"
        },
        "subject": {
          "reference": "urn:uuid:05efabf0-4be2-4561-91ce-51548425acb9"
        },
        "period": {
          "start": "2005-02-09T00:00:00-07:00",
          "end": "2005-02-09T00:00:00-07:00"
        }
      },
      "request": {
        "method": "POST",
        "url": "Encounter"
      }
    },
    {
      "resource": {
        "resourceType": "Encounter",
        "status": "finished",
        "class": {
          "system": "http://hl7.org/fhir/v3/ActCode",
          "code": "AMB"
        },
        "subject": {
          "reference": "urn:uuid:05efabf0-4be2-4561-91ce-51548425acb9"
        },
        "period": {
          "start": "2005-02-10T00:00:00-07:00",
          "end": "2005-02-10T00:00:00-07:00"
        }
      },
      "request": {
        "method": "POST",
        "url": "Encounter"
      }
    },
    {
      "resource": {
        "resourceType": "Encounter",
        "status": "finished",
        "class": {
          "system": "http://hl7.org/fhir/v3/ActCode",
          "code": "AMB"
        },
        "subject": {
          "reference": "urn:uuid:05efabf0-4be2-4561-91ce-51548425acb9"
        },
        "period": {
          "start": "2005-02-23T00:00:00-07:00",
          "end": "2005-02-23T00:00:00-07:00"
        }
      },
      "request": {
        "method": "POST",
        "url": "Encounter"
      }
    },
    {
      "resource": {
        "resourceType": "Encounter",
        "status": "finished",
        "class": {
          "system": "http://hl7.org/fhir/v3/ActCode",
          "code": "AMB"
        },
        "subject": {
          "reference": "urn:uuid:05efabf0-4be2-4561-91ce-51548425acb9"
        },
        "period": {
          "start": "2005-02-24T00:00:00-07:00",
          "end": "2005-02-24T00:00:00-07:00"
        }
      },
      "request": {
        "method": "POST",
        "url": "Encounter"
      }
    },
    {
      "resource": {
        "resourceType": "Encounter",
        "status": "finished",
        "class": {
          "system": "http://hl7.org/fhir/v3/ActCode",
          "code": "AMB"
        },
        "subject": {
          "reference": "urn:uuid:05efabf0-4be2-4561-91ce-51548425acb9"
        },
        "period": {
          "start": "2005-02-25T00:00:00-07:00",
          "end": "2005-02-25T00:00:00-07:00"
        }
      },
      "request": {
        "method": "POST",
        "url": "Encounter"
      }
    },
    {
      "resource": {
        "resourceType": "Encounter",
        "status": "finished",
        "class": {
          "system": "http://hl7.org/fhir/v3/ActCode",
          "code": "AMB"
        },
        "subject": {
          "reference": "urn:uuid:05efabf0-4be2-4561-91ce-51548425acb9"
        },
        "period": {
          "start": "2009-04-07T00:00:00-06:00",
          "end": "2009-04-07T00:00:00-06:00"
        }
      },
      "request": {
        "method": "POST",
        "url": "Encounter"
      }
    },
    {
      "resource": {
        "resourceType": "Encounter",
        "status": "finished",
        "class": {
          "system": "http://hl7.org/fhir/v3/ActCode",
          "code": "AMB"
        },
        "subject": {
          "reference": "urn:uuid:05efabf0-4be2-4561-91ce-51548425acb9"
        },
        "period": {
          "start": "2009-04-08T00:00:00-06:00",
          "end": "2009-04-08T00:00:00-06:00"
        }
      },
      "request": {
        "method": "POST",
        "url": "Encounter"
      }
    },
    {
      "resource": {
        "resourceType": "Encounter",
        "status": "finished",
        "class": {
          "system": "http://hl7.org/fhir/v3/ActCode",
          "code": "AMB"
        },
        "subject": {
          "reference": "urn:uuid:05efabf0-4be2-4561-91ce-51548425acb9"
        },
        "period": {
          "start": "2009-04-14T00:00:00-06:00",
          "end": "2009-04-14T00:00:00-06:00"
        }
      },
      "request": {
        "method": "POST",
        "url": "Encounter"
      }
    },
    {
      "resource": {
        "resourceType": "Encounter",
        "status": "finished",
        "class": {
          "system": "http://hl7.org/fhir/v3/ActCode",
          "code": "AMB"
        },
        "subject": {
          "reference": "urn:uuid:05efabf0-4be2-4561-91ce-51548425acb9"
        },
        "period": {
          "start": "2009-04-23T00:00:00-06:00",
          "end": "2009-04-23T00:00:00-06:00"
        }
      },
      "request": {
        "method": "POST",
        "url": "Encounter"
      }
    },
    {
      "resource": {
        "resourceType": "Encounter",
        "status": "finished",
        "class": {
          "system": "http://hl7.org/fhir/v3/ActCode",
          "code": "AMB"
        },
        "subject": {
          "reference": "urn:uuid:05efabf0-4be2-4561-91ce-51548425acb9"
        },
        "period": {
          "start": "2009-04-24T00:00:00-06:00",
          "end": "2009-04-24T00:00:00-06:00"
        }
      },
      "request": {
        "method": "POST",
        "url": "Encounter"
      }
    },
    {
      "resource": {
        "resourceType": "Encounter",
        "status": "finished",
        "class": {
          "system": "http://hl7.org/fhir/v3/ActCode",
          "code": "AMB"
        },
        "subject": {
          "reference": "urn:uuid:05efabf0-4be2-4561-91ce-51548425acb9"
        },
        "period": {
          "start": "2009-04-27T00:00:00-06:00",
          "end": "2009-04-27T00:00:00-06:00"
        }
      },
      "request": {
        "method": "POST",
        "url": "Encounter"
      }
    },
    {
      "resource": {
        "resourceType": "Encounter",
        "status": "finished",
        "class": {
          "system": "http://hl7.org/fhir/v3/ActCode",
          "code": "AMB"
        },
        "subject": {
          "reference": "urn:uuid:05efabf0-4be2-4561-91ce-51548425acb9"
        },
        "period": {
          "start": "2009-04-28T00:00:00-06:00",
          "end": "2009-04-28T00:00:00-06:00"
        }
      },
      "request": {
        "method": "POST",
        "url": "Encounter"
      }
    },
    {
      "resource": {
        "resourceType": "Encounter",
        "status": "finished",
        "class": {
          "system": "http://hl7.org/fhir/v3/ActCode",
          "code": "AMB"
        },
        "subject": {
          "reference": "urn:uuid:05efabf0-4be2-4561-91ce-51548425acb9"
        },
        "period": {
          "start": "2009-10-29T00:00:00-06:00",
          "end": "2009-10-29T00:00:00-06:00"
        }
      },
      "request": {
        "method": "POST",
        "url": "Encounter"
      }
    },
    {
      "resource": {
        "resourceType": "Encounter",
        "status": "finished",
        "class": {
          "system": "http://hl7.org/fhir/v3/ActCode",
          "code": "AMB"
        },
        "subject": {
          "reference": "urn:uuid:05efabf0-4be2-4561-91ce-51548425acb9"
        },
        "period": {
          "start": "2009-10-30T00:00:00-06:00",
          "end": "2009-10-30T00:00:00-06:00"
        }
      },
      "request": {
        "method": "POST",
        "url": "Encounter"
      }
    },
    {
      "resource": {
        "resourceType": "Encounter",
        "status": "finished",
        "class": {
          "system": "http://hl7.org/fhir/v3/ActCode",
          "code": "AMB"
        },
        "subject": {
          "reference": "urn:uuid:05efabf0-4be2-4561-91ce-51548425acb9"
        },
        "period": {
          "start": "2009-12-01T00:00:00-07:00",
          "end": "2009-12-01T00:00:00-07:00"
        }
      },
      "request": {
        "method": "POST",
        "url": "Encounter"
      }
    },
    {
      "resource": {
        "resourceType": "Encounter",
        "status": "finished",
        "class": {
          "system": "http://hl7.org/fhir/v3/ActCode",
          "code": "AMB"
        },
        "subject": {
          "reference": "urn:uuid:05efabf0-4be2-4561-91ce-51548425acb9"
        },
        "period": {
          "start": "1999-12-20T00:00:00-07:00",
          "end": "1999-12-20T00:00:00-07:00"
        }
      },
      "request": {
        "method": "POST",
        "url": "Encounter"
      }
    },
    {
      "resource": {
        "resourceType": "Encounter",
        "status": "finished",
        "class": {
          "system": "http://hl7.org/fhir/v3/ActCode",
          "code": "AMB"
        },
        "subject": {
          "reference": "urn:uuid:05efabf0-4be2-4561-91ce-51548425acb9"
        },
        "period": {
          "start": "1997-05-07T00:00:00-06:00",
          "end": "1997-05-07T00:00:00-06:00"
        }
      },
      "request": {
        "method": "POST",
        "url": "Encounter"
      }
    },
    {
      "resource": {
        "resourceType": "Encounter",
        "status": "finished",
        "class": {
          "system": "http://hl7.org/fhir/v3/ActCode",
          "code": "AMB"
        },
        "subject": {
          "reference": "urn:uuid:05efabf0-4be2-4561-91ce-51548425acb9"
        },
        "period": {
          "start": "1997-05-07T00:00:00-06:00",
          "end": "1997-05-07T00:00:00-06:00"
        }
      },
      "request": {
        "method": "POST",
        "url": "Encounter"
      }
    },
    {
      "resource": {
        "resourceType": "Encounter",
        "status": "finished",
        "class": {
          "system": "http://hl7.org/fhir/v3/ActCode",
          "code": "AMB"
        },
        "subject": {
          "reference": "urn:uuid:05efabf0-4be2-4561-91ce-51548425acb9"
        },
        "period": {
          "start": "2001-01-25T00:00:00-07:00",
          "end": "2001-01-25T00:00:00-07:00"
        }
      },
      "request": {
        "method": "POST",
        "url": "Encounter"
      }
    },
    {
      "resource": {
        "resourceType": "Encounter",
        "status": "finished",
        "class": {
          "system": "http://hl7.org/fhir/v3/ActCode",
          "code": "AMB"
        },
        "subject": {
          "reference": "urn:uuid:05efabf0-4be2-4561-91ce-51548425acb9"
        },
        "period": {
          "start": "2001-11-01T00:00:00-07:00",
          "end": "2001-11-01T00:00:00-07:00"
        }
      },
      "request": {
        "method": "POST",
        "url": "Encounter"
      }
    },
    {
      "resource": {
        "resourceType": "Encounter",
        "status": "finished",
        "class": {
          "system": "http://hl7.org/fhir/v3/ActCode",
          "code": "AMB"
        },
        "subject": {
          "reference": "urn:uuid:05efabf0-4be2-4561-91ce-51548425acb9"
        },
        "period": {
          "start": "2001-01-19T00:00:00-07:00",
          "end": "2001-01-19T00:00:00-07:00"
        }
      },
      "request": {
        "method": "POST",
        "url": "Encounter"
      }
    },
    {
      "resource": {
        "resourceType": "Encounter",
        "status": "finished",
        "class": {
          "system": "http://hl7.org/fhir/v3/ActCode",
          "code": "AMB"
        },
        "subject": {
          "reference": "urn:uuid:05efabf0-4be2-4561-91ce-51548425acb9"
        },
        "period": {
          "start": "1999-12-20T00:00:00-07:00",
          "end": "1999-12-20T00:00:00-07:00"
        }
      },
      "request": {
        "method": "POST",
        "url": "Encounter"
      }
    },
    {
      "resource": {
        "resourceType": "Encounter",
        "status": "finished",
        "class": {
          "system": "http://hl7.org/fhir/v3/ActCode",
          "code": "AMB"
        },
        "subject": {
          "reference": "urn:uuid:05efabf0-4be2-4561-91ce-51548425acb9"
        },
        "period": {
          "start": "1997-04-30T00:00:00-06:00",
          "end": "1997-04-30T00:00:00-06:00"
        }
      },
      "request": {
        "method": "POST",
        "url": "Encounter"
      }
    },
    {
      "resource": {
        "resourceType": "Encounter",
        "status": "finished",
        "class": {
          "system": "http://hl7.org/fhir/v3/ActCode",
          "code": "AMB"
        },
        "subject": {
          "reference": "urn:uuid:05efabf0-4be2-4561-91ce-51548425acb9"
        },
        "period": {
          "start": "2001-01-25T00:00:00-07:00",
          "end": "2001-01-25T00:00:00-07:00"
        }
      },
      "request": {
        "method": "POST",
        "url": "Encounter"
      }
    },
    {
      "resource": {
        "resourceType": "Encounter",
        "status": "finished",
        "class": {
          "system": "http://hl7.org/fhir/v3/ActCode",
          "code": "AMB"
        },
        "subject": {
          "reference": "urn:uuid:05efabf0-4be2-4561-91ce-51548425acb9"
        },
        "period": {
          "start": "1997-05-01T00:00:00-06:00",
          "end": "1997-05-01T00:00:00-06:00"
        }
      },
      "request": {
        "method": "POST",
        "url": "Encounter"
      }
    },
    {
      "resource": {
        "resourceType": "Encounter",
        "status": "finished",
        "class": {
          "system": "http://hl7.org/fhir/v3/ActCode",
          "code": "AMB"
        },
        "subject": {
          "reference": "urn:uuid:05efabf0-4be2-4561-91ce-51548425acb9"
        },
        "period": {
          "start": "1997-05-07T00:00:00-06:00",
          "end": "1997-05-07T00:00:00-06:00"
        }
      },
      "request": {
        "method": "POST",
        "url": "Encounter"
      }
    },
    {
      "resource": {
        "resourceType": "Encounter",
        "status": "finished",
        "class": {
          "system": "http://hl7.org/fhir/v3/ActCode",
          "code": "AMB"
        },
        "subject": {
          "reference": "urn:uuid:05efabf0-4be2-4561-91ce-51548425acb9"
        },
        "period": {
          "start": "2001-01-19T00:00:00-07:00",
          "end": "2001-01-19T00:00:00-07:00"
        }
      },
      "request": {
        "method": "POST",
        "url": "Encounter"
      }
    },
    {
      "resource": {
        "resourceType": "Encounter",
        "status": "finished",
        "class": {
          "system": "http://hl7.org/fhir/v3/ActCode",
          "code": "AMB"
        },
        "subject": {
          "reference": "urn:uuid:05efabf0-4be2-4561-91ce-51548425acb9"
        },
        "period": {
          "start": "1999-12-20T00:00:00-07:00",
          "end": "1999-12-20T00:00:00-07:00"
        }
      },
      "request": {
        "method": "POST",
        "url": "Encounter"
      }
    },
    {
      "resource": {
        "resourceType": "Encounter",
        "status": "finished",
        "class": {
          "system": "http://hl7.org/fhir/v3/ActCode",
          "code": "AMB"
        },
        "subject": {
          "reference": "urn:uuid:05efabf0-4be2-4561-91ce-51548425acb9"
        },
        "period": {
          "start": "1997-05-01T00:00:00-06:00",
          "end": "1997-05-01T00:00:00-06:00"
        }
      },
      "request": {
        "method": "POST",
        "url": "Encounter"
      }
    },
    {
      "resource": {
        "resourceType": "Encounter",
        "status": "finished",
        "class": {
          "system": "http://hl7.org/fhir/v3/ActCode",
          "code": "AMB"
        },
        "subject": {
          "reference": "urn:uuid:05efabf0-4be2-4561-91ce-51548425acb9"
        },
        "period": {
          "start": "1997-05-01T00:00:00-06:00",
          "end": "1997-05-01T00:00:00-06:00"
        }
      },
      "request": {
        "method": "POST",
        "url": "Encounter"
      }
    },
    {
      "resource": {
        "resourceType": "Observation",
        "status": "final",
        "category": [
          {
            "coding": [
              {
                "system": "http://hl7.org/fhir/observation-category",
                "code": "vital-signs",
                "display": "Vital Signs",
                "userSelected": false
              }
            ],
            "text": "Vital Signs"
          }
        ],
        "code": {
          "coding": [
            {
              "system": "http://loinc.org",
              "code": "55284-4",
              "display": "Blood pressure systolic and diastolic",
              "userSelected": false
            }
          ],
          "text": "Blood pressure systolic and diastolic"
        },
        "subject": {
          "reference": "urn:uuid:05efabf0-4be2-4561-91ce-51548425acb9"
        },
        "encounter": {
          "reference": "urn:uuid:b79cb3ba-745e-5d9a-8903-4a02327a7e09"
        },
        "effectiveDateTime": "1997-04-30T00:00:00-06:00",
        "component": [
          {
            "code": {
              "coding": [
                {
                  "system": "http://loinc.org",
                  "code": "8480-6",
                  "display": "Systolic blood pressure",
                  "userSelected": false
                }
              ],
              "text": "Systolic blood pressure"
            },
            "valueQuantity": {
              "value": 87,
              "unit": "mmHg",
              "system": "http://unitsofmeasure.org",
              "code": "mm[Hg]"
            }
          },
          {
            "code": {
              "coding": [
                {
                  "system": "http://loinc.org",
                  "code": "8462-4",
                  "display": "Diastolic blood pressure",
                  "userSelected": false
                }
              ],
              "text": "Diastolic blood pressure"
            },
            "valueQuantity": {
              "value": 75,
              "unit": "mmHg",
              "system": "http://unitsofmeasure.org",
              "code": "mm[Hg]"
            }
          }
        ]
      },
      "request": {
        "method": "POST",
        "url": "Observation"
      }
    },
    {
      "resource": {
        "resourceType": "Observation",
        "status": "final",
        "category": [
          {
            "coding": [
              {
                "system": "http://hl7.org/fhir/observation-category",
                "code": "vital-signs",
                "display": "Vital Signs",
                "userSelected": false
              }
            ],
            "text": "Vital Signs"
          }
        ],
        "code": {
          "coding": [
            {
              "system": "http://loinc.org",
              "code": "8480-6",
              "display": "Systolic blood pressure",
              "userSelected": false
            }
          ],
          "text": "Systolic blood pressure"
        },
        "subject": {
          "reference": "urn:uuid:05efabf0-4be2-4561-91ce-51548425acb9"
        },
        "effectiveDateTime": "1997-04-30T00:00:00-06:00",
        "valueQuantity": {
          "value": 87.0,
          "unit": "mm[Hg]",
          "system": "http://unitsofmeasure.org",
          "code": "mm[Hg]"
        }
      },
      "request": {
        "method": "POST",
        "url": "Observation"
      }
    },
    {
      "resource": {
        "resourceType": "Observation",
        "status": "final",
        "category": [
          {
            "coding": [
              {
                "system": "http://hl7.org/fhir/observation-category",
                "code": "vital-signs",
                "display": "Vital Signs",
                "userSelected": false
              }
            ],
            "text": "Vital Signs"
          }
        ],
        "code": {
          "coding": [
            {
              "system": "http://loinc.org",
              "code": "8462-4",
              "display": "Diastolic blood pressure",
              "userSelected": false
            }
          ],
          "text": "Diastolic blood pressure"
        },
        "subject": {
          "reference": "urn:uuid:05efabf0-4be2-4561-91ce-51548425acb9"
        },
        "effectiveDateTime": "1997-04-30T00:00:00-06:00",
        "valueQuantity": {
          "value": 75.0,
          "unit": "mm[Hg]",
          "system": "http://unitsofmeasure.org",
          "code": "mm[Hg]"
        }
      },
      "request": {
        "method": "POST",
        "url": "Observation"
      }
    },
    {
      "resource": {
        "resourceType": "Observation",
        "status": "final",
        "category": [
          {
            "coding": [
              {
                "system": "http://hl7.org/fhir/observation-category",
                "code": "vital-signs",
                "display": "Vital Signs",
                "userSelected": false
              }
            ],
            "text": "Vital Signs"
          }
        ],
        "code": {
          "coding": [
            {
              "system": "http://loinc.org",
              "code": "55284-4",
              "display": "Blood pressure systolic and diastolic",
              "userSelected": false
            }
          ],
          "text": "Blood pressure systolic and diastolic"
        },
        "subject": {
          "reference": "urn:uuid:05efabf0-4be2-4561-91ce-51548425acb9"
        },
        "encounter": {
          "reference": "urn:uuid:b79cb3ba-745e-5d9a-8903-4a02327a7e09"
        },
        "effectiveDateTime": "1997-05-01T00:00:00-06:00",
        "component": [
          {
            "code": {
              "coding": [
                {
                  "system": "http://loinc.org",
                  "code": "8480-6",
                  "display": "Systolic blood pressure",
                  "userSelected": false
                }
              ],
              "text": "Systolic blood pressure"
            },
            "valueQuantity": {
              "value": 107,
              "unit": "mmHg",
              "system": "http://unitsofmeasure.org",
              "code": "mm[Hg]"
            }
          },
          {
            "code": {
              "coding": [
                {
                  "system": "http://loinc.org",
                  "code": "8462-4",
                  "display": "Diastolic blood pressure",
                  "userSelected": false
                }
              ],
              "text": "Diastolic blood pressure"
            },
            "valueQuantity": {
              "value": 67,
              "unit": "mmHg",
              "system": "http://unitsofmeasure.org",
              "code": "mm[Hg]"
            }
          }
        ]
      },
      "request": {
        "method": "POST",
        "url": "Observation"
      }
    },
    {
      "resource": {
        "resourceType": "Observation",
        "status": "final",
        "category": [
          {
            "coding": [
              {
                "system": "http://hl7.org/fhir/observation-category",
                "code": "vital-signs",
                "display": "Vital Signs",
                "userSelected": false
              }
            ],
            "text": "Vital Signs"
          }
        ],
        "code": {
          "coding": [
            {
              "system": "http://loinc.org",
              "code": "8480-6",
              "display": "Systolic blood pressure",
              "userSelected": false
            }
          ],
          "text": "Systolic blood pressure"
        },
        "subject": {
          "reference": "urn:uuid:05efabf0-4be2-4561-91ce-51548425acb9"
        },
        "effectiveDateTime": "1997-05-01T00:00:00-06:00",
        "valueQuantity": {
          "value": 107.0,
          "unit": "mm[Hg]",
          "system": "http://unitsofmeasure.org",
          "code": "mm[Hg]"
        }
      },
      "request": {
        "method": "POST",
        "url": "Observation"
      }
    },
    {
      "resource": {
        "resourceType": "Observation",
        "status": "final",
        "category": [
          {
            "coding": [
              {
                "system": "http://hl7.org/fhir/observation-category",
                "code": "vital-signs",
                "display": "Vital Signs",
                "userSelected": false
              }
            ],
            "text": "Vital Signs"
          }
        ],
        "code": {
          "coding": [
            {
              "system": "http://loinc.org",
              "code": "8462-4",
              "display": "Diastolic blood pressure",
              "userSelected": false
            }
          ],
          "text": "Diastolic blood pressure"
        },
        "subject": {
          "reference": "urn:uuid:05efabf0-4be2-4561-91ce-51548425acb9"
        },
        "effectiveDateTime": "1997-05-01T00:00:00-06:00",
        "valueQuantity": {
          "value": 67.0,
          "unit": "mm[Hg]",
          "system": "http://unitsofmeasure.org",
          "code": "mm[Hg]"
        }
      },
      "request": {
        "method": "POST",
        "url": "Observation"
      }
    },
    {
      "resource": {
        "resourceType": "Observation",
        "status": "final",
        "category": [
          {
            "coding": [
              {
                "system": "http://hl7.org/fhir/observation-category",
                "code": "vital-signs",
                "display": "Vital Signs",
                "userSelected": false
              }
            ],
            "text": "Vital Signs"
          }
        ],
        "code": {
          "coding": [
            {
              "system": "http://loinc.org",
              "code": "55284-4",
              "display": "Blood pressure systolic and diastolic",
              "userSelected": false
            }
          ],
          "text": "Blood pressure systolic and diastolic"
        },
        "subject": {
          "reference": "urn:uuid:05efabf0-4be2-4561-91ce-51548425acb9"
        },
        "encounter": {
          "reference": "urn:uuid:b79cb3ba-745e-5d9a-8903-4a02327a7e09"
        },
        "effectiveDateTime": "1997-05-07T00:00:00-06:00",
        "component": [
          {
            "code": {
              "coding": [
                {
                  "system": "http://loinc.org",
                  "code": "8480-6",
                  "display": "Systolic blood pressure",
                  "userSelected": false
                }
              ],
              "text": "Systolic blood pressure"
            },
            "valueQuantity": {
              "value": 68,
              "unit": "mmHg",
              "system": "http://unitsofmeasure.org",
              "code": "mm[Hg]"
            }
          },
          {
            "code": {
              "coding": [
                {
                  "system": "http://loinc.org",
                  "code": "8462-4",
                  "display": "Diastolic blood pressure",
                  "userSelected": false
                }
              ],
              "text": "Diastolic blood pressure"
            },
            "valueQuantity": {
              "value": 43,
              "unit": "mmHg",
              "system": "http://unitsofmeasure.org",
              "code": "mm[Hg]"
            }
          }
        ]
      },
      "request": {
        "method": "POST",
        "url": "Observation"
      }
    },
    {
      "resource": {
        "resourceType": "Observation",
        "status": "final",
        "category": [
          {
            "coding": [
              {
                "system": "http://hl7.org/fhir/observation-category",
                "code": "vital-signs",
                "display": "Vital Signs",
                "userSelected": false
              }
            ],
            "text": "Vital Signs"
          }
        ],
        "code": {
          "coding": [
            {
              "system": "http://loinc.org",
              "code": "8480-6",
              "display": "Systolic blood pressure",
              "userSelected": false
            }
          ],
          "text": "Systolic blood pressure"
        },
        "subject": {
          "reference": "urn:uuid:05efabf0-4be2-4561-91ce-51548425acb9"
        },
        "effectiveDateTime": "1997-05-07T00:00:00-06:00",
        "valueQuantity": {
          "value": 68.0,
          "unit": "mm[Hg]",
          "system": "http://unitsofmeasure.org",
          "code": "mm[Hg]"
        }
      },
      "request": {
        "method": "POST",
        "url": "Observation"
      }
    },
    {
      "resource": {
        "resourceType": "Observation",
        "status": "final",
        "category": [
          {
            "coding": [
              {
                "system": "http://hl7.org/fhir/observation-category",
                "code": "vital-signs",
                "display": "Vital Signs",
                "userSelected": false
              }
            ],
            "text": "Vital Signs"
          }
        ],
        "code": {
          "coding": [
            {
              "system": "http://loinc.org",
              "code": "8462-4",
              "display": "Diastolic blood pressure",
              "userSelected": false
            }
          ],
          "text": "Diastolic blood pressure"
        },
        "subject": {
          "reference": "urn:uuid:05efabf0-4be2-4561-91ce-51548425acb9"
        },
        "effectiveDateTime": "1997-05-07T00:00:00-06:00",
        "valueQuantity": {
          "value": 43.0,
          "unit": "mm[Hg]",
          "system": "http://unitsofmeasure.org",
          "code": "mm[Hg]"
        }
      },
      "request": {
        "method": "POST",
        "url": "Observation"
      }
    },
    {
      "resource": {
        "resourceType": "Observation",
        "status": "final",
        "category": [
          {
            "coding": [
              {
                "system": "http://hl7.org/fhir/observation-category",
                "code": "vital-signs",
                "display": "Vital Signs",
                "userSelected": false
              }
            ],
            "text": "Vital Signs"
          }
        ],
        "code": {
          "coding": [
            {
              "system": "http://loinc.org",
              "code": "55284-4",
              "display": "Blood pressure systolic and diastolic",
              "userSelected": false
            }
          ],
          "text": "Blood pressure systolic and diastolic"
        },
        "subject": {
          "reference": "urn:uuid:05efabf0-4be2-4561-91ce-51548425acb9"
        },
        "encounter": {
          "reference": "urn:uuid:fb3463a0-7d6e-54a3-bcd8-1b93388c648d"
        },
        "effectiveDateTime": "1999-12-20T00:00:00-07:00",
        "component": [
          {
            "code": {
              "coding": [
                {
                  "system": "http://loinc.org",
                  "code": "8480-6",
                  "display": "Systolic blood pressure",
                  "userSelected": false
                }
              ],
              "text": "Systolic blood pressure"
            },
            "valueQuantity": {
              "value": 83,
              "unit": "mmHg",
              "system": "http://unitsofmeasure.org",
              "code": "mm[Hg]"
            }
          },
          {
            "code": {
              "coding": [
                {
                  "system": "http://loinc.org",
                  "code": "8462-4",
                  "display": "Diastolic blood pressure",
                  "userSelected": false
                }
              ],
              "text": "Diastolic blood pressure"
            },
            "valueQuantity": {
              "value": 53,
              "unit": "mmHg",
              "system": "http://unitsofmeasure.org",
              "code": "mm[Hg]"
            }
          }
        ]
      },
      "request": {
        "method": "POST",
        "url": "Observation"
      }
    },
    {
      "resource": {
        "resourceType": "Observation",
        "status": "final",
        "category": [
          {
            "coding": [
              {
                "system": "http://hl7.org/fhir/observation-category",
                "code": "vital-signs",
                "display": "Vital Signs",
                "userSelected": false
              }
            ],
            "text": "Vital Signs"
          }
        ],
        "code": {
          "coding": [
            {
              "system": "http://loinc.org",
              "code": "8480-6",
              "display": "Systolic blood pressure",
              "userSelected": false
            }
          ],
          "text": "Systolic blood pressure"
        },
        "subject": {
          "reference": "urn:uuid:05efabf0-4be2-4561-91ce-51548425acb9"
        },
        "effectiveDateTime": "1999-12-20T00:00:00-07:00",
        "valueQuantity": {
          "value": 83.0,
          "unit": "mm[Hg]",
          "system": "http://unitsofmeasure.org",
          "code": "mm[Hg]"
        }
      },
      "request": {
        "method": "POST",
        "url": "Observation"
      }
    },
    {
      "resource": {
        "resourceType": "Observation",
        "status": "final",
        "category": [
          {
            "coding": [
              {
                "system": "http://hl7.org/fhir/observation-category",
                "code": "vital-signs",
                "display": "Vital Signs",
                "userSelected": false
              }
            ],
            "text": "Vital Signs"
          }
        ],
        "code": {
          "coding": [
            {
              "system": "http://loinc.org",
              "code": "8462-4",
              "display": "Diastolic blood pressure",
              "userSelected": false
            }
          ],
          "text": "Diastolic blood pressure"
        },
        "subject": {
          "reference": "urn:uuid:05efabf0-4be2-4561-91ce-51548425acb9"
        },
        "effectiveDateTime": "1999-12-20T00:00:00-07:00",
        "valueQuantity": {
          "value": 53.0,
          "unit": "mm[Hg]",
          "system": "http://unitsofmeasure.org",
          "code": "mm[Hg]"
        }
      },
      "request": {
        "method": "POST",
        "url": "Observation"
      }
    },
    {
      "resource": {
        "resourceType": "Observation",
        "status": "final",
        "category": [
          {
            "coding": [
              {
                "system": "http://hl7.org/fhir/observation-category",
                "code": "vital-signs",
                "display": "Vital Signs",
                "userSelected": false
              }
            ],
            "text": "Vital Signs"
          }
        ],
        "code": {
          "coding": [
            {
              "system": "http://loinc.org",
              "code": "55284-4",
              "display": "Blood pressure systolic and diastolic",
              "userSelected": false
            }
          ],
          "text": "Blood pressure systolic and diastolic"
        },
        "subject": {
          "reference": "urn:uuid:05efabf0-4be2-4561-91ce-51548425acb9"
        },
        "encounter": {
          "reference": "urn:uuid:fb3463a0-7d6e-54a3-bcd8-1b93388c648d"
        },
        "effectiveDateTime": "1999-12-21T00:00:00-07:00",
        "component": [
          {
            "code": {
              "coding": [
                {
                  "system": "http://loinc.org",
                  "code": "8480-6",
                  "display": "Systolic blood pressure",
                  "userSelected": false
                }
              ],
              "text": "Systolic blood pressure"
            },
            "valueQuantity": {
              "value": 128,
              "unit": "mmHg",
              "system": "http://unitsofmeasure.org",
              "code": "mm[Hg]"
            }
          },
          {
            "code": {
              "coding": [
                {
                  "system": "http://loinc.org",
                  "code": "8462-4",
                  "display": "Diastolic blood pressure",
                  "userSelected": false
                }
              ],
              "text": "Diastolic blood pressure"
            },
            "valueQuantity": {
              "value": 81,
              "unit": "mmHg",
              "system": "http://unitsofmeasure.org",
              "code": "mm[Hg]"
            }
          }
        ]
      },
      "request": {
        "method": "POST",
        "url": "Observation"
      }
    },
    {
      "resource": {
        "resourceType": "Observation",
        "status": "final",
        "category": [
          {
            "coding": [
              {
                "system": "http://hl7.org/fhir/observation-category",
                "code": "vital-signs",
                "display": "Vital Signs",
                "userSelected": false
              }
            ],
            "text": "Vital Signs"
          }
        ],
        "code": {
          "coding": [
            {
              "system": "http://loinc.org",
              "code": "8480-6",
              "display": "Systolic blood pressure",
              "userSelected": false
            }
          ],
          "text": "Systolic blood pressure"
        },
        "subject": {
          "reference": "urn:uuid:05efabf0-4be2-4561-91ce-51548425acb9"
        },
        "effectiveDateTime": "1999-12-21T00:00:00-07:00",
        "valueQuantity": {
          "value": 128.0,
          "unit": "mm[Hg]",
          "system": "http://unitsofmeasure.org",
          "code": "mm[Hg]"
        }
      },
      "request": {
        "method": "POST",
        "url": "Observation"
      }
    },
    {
      "resource": {
        "resourceType": "Observation",
        "status": "final",
        "category": [
          {
            "coding": [
              {
                "system": "http://hl7.org/fhir/observation-category",
                "code": "vital-signs",
                "display": "Vital Signs",
                "userSelected": false
              }
            ],
            "text": "Vital Signs"
          }
        ],
        "code": {
          "coding": [
            {
              "system": "http://loinc.org",
              "code": "8462-4",
              "display": "Diastolic blood pressure",
              "userSelected": false
            }
          ],
          "text": "Diastolic blood pressure"
        },
        "subject": {
          "reference": "urn:uuid:05efabf0-4be2-4561-91ce-51548425acb9"
        },
        "effectiveDateTime": "1999-12-21T00:00:00-07:00",
        "valueQuantity": {
          "value": 81.0,
          "unit": "mm[Hg]",
          "system": "http://unitsofmeasure.org",
          "code": "mm[Hg]"
        }
      },
      "request": {
        "method": "POST",
        "url": "Observation"
      }
    },
    {
      "resource": {
        "resourceType": "Observation",
        "status": "final",
        "category": [
          {
            "coding": [
              {
                "system": "http://hl7.org/fhir/observation-category",
                "code": "vital-signs",
                "display": "Vital Signs",
                "userSelected": false
              }
            ],
            "text": "Vital Signs"
          }
        ],
        "code": {
          "coding": [
            {
              "system": "http://loinc.org",
              "code": "55284-4",
              "display": "Blood pressure systolic and diastolic",
              "userSelected": false
            }
          ],
          "text": "Blood pressure systolic and diastolic"
        },
        "subject": {
          "reference": "urn:uuid:05efabf0-4be2-4561-91ce-51548425acb9"
        },
        "encounter": {
          "reference": "urn:uuid:efe7eedd-89c5-56f5-984c-0712ee41a2eb"
        },
        "effectiveDateTime": "2001-01-19T00:00:00-07:00",
        "component": [
          {
            "code": {
              "coding": [
                {
                  "system": "http://loinc.org",
                  "code": "8480-6",
                  "display": "Systolic blood pressure",
                  "userSelected": false
                }
              ],
              "text": "Systolic blood pressure"
            },
            "valueQuantity": {
              "value": 110,
              "unit": "mmHg",
              "system": "http://unitsofmeasure.org",
              "code": "mm[Hg]"
            }
          },
          {
            "code": {
              "coding": [
                {
                  "system": "http://loinc.org",
                  "code": "8462-4",
                  "display": "Diastolic blood pressure",
                  "userSelected": false
                }
              ],
              "text": "Diastolic blood pressure"
            },
            "valueQuantity": {
              "value": 69,
              "unit": "mmHg",
              "system": "http://unitsofmeasure.org",
              "code": "mm[Hg]"
            }
          }
        ]
      },
      "request": {
        "method": "POST",
        "url": "Observation"
      }
    },
    {
      "resource": {
        "resourceType": "Observation",
        "status": "final",
        "category": [
          {
            "coding": [
              {
                "system": "http://hl7.org/fhir/observation-category",
                "code": "vital-signs",
                "display": "Vital Signs",
                "userSelected": false
              }
            ],
            "text": "Vital Signs"
          }
        ],
        "code": {
          "coding": [
            {
              "system": "http://loinc.org",
              "code": "8480-6",
              "display": "Systolic blood pressure",
              "userSelected": false
            }
          ],
          "text": "Systolic blood pressure"
        },
        "subject": {
          "reference": "urn:uuid:05efabf0-4be2-4561-91ce-51548425acb9"
        },
        "effectiveDateTime": "2001-01-19T00:00:00-07:00",
        "valueQuantity": {
          "value": 110.0,
          "unit": "mm[Hg]",
          "system": "http://unitsofmeasure.org",
          "code": "mm[Hg]"
        }
      },
      "request": {
        "method": "POST",
        "url": "Observation"
      }
    },
    {
      "resource": {
        "resourceType": "Observation",
        "status": "final",
        "category": [
          {
            "coding": [
              {
                "system": "http://hl7.org/fhir/observation-category",
                "code": "vital-signs",
                "display": "Vital Signs",
                "userSelected": false
              }
            ],
            "text": "Vital Signs"
          }
        ],
        "code": {
          "coding": [
            {
              "system": "http://loinc.org",
              "code": "8462-4",
              "display": "Diastolic blood pressure",
              "userSelected": false
            }
          ],
          "text": "Diastolic blood pressure"
        },
        "subject": {
          "reference": "urn:uuid:05efabf0-4be2-4561-91ce-51548425acb9"
        },
        "effectiveDateTime": "2001-01-19T00:00:00-07:00",
        "valueQuantity": {
          "value": 69.0,
          "unit": "mm[Hg]",
          "system": "http://unitsofmeasure.org",
          "code": "mm[Hg]"
        }
      },
      "request": {
        "method": "POST",
        "url": "Observation"
      }
    },
    {
      "resource": {
        "resourceType": "Observation",
        "status": "final",
        "category": [
          {
            "coding": [
              {
                "system": "http://hl7.org/fhir/observation-category",
                "code": "vital-signs",
                "display": "Vital Signs",
                "userSelected": false
              }
            ],
            "text": "Vital Signs"
          }
        ],
        "code": {
          "coding": [
            {
              "system": "http://loinc.org",
              "code": "55284-4",
              "display": "Blood pressure systolic and diastolic",
              "userSelected": false
            }
          ],
          "text": "Blood pressure systolic and diastolic"
        },
        "subject": {
          "reference": "urn:uuid:05efabf0-4be2-4561-91ce-51548425acb9"
        },
        "encounter": {
          "reference": "urn:uuid:c40b683b-ac7b-5d6b-b0eb-549cb20169b9"
        },
        "effectiveDateTime": "2001-01-24T00:00:00-07:00",
        "component": [
          {
            "code": {
              "coding": [
                {
                  "system": "http://loinc.org",
                  "code": "8480-6",
                  "display": "Systolic blood pressure",
                  "userSelected": false
                }
              ],
              "text": "Systolic blood pressure"
            },
            "valueQuantity": {
              "value": 100,
              "unit": "mmHg",
              "system": "http://unitsofmeasure.org",
              "code": "mm[Hg]"
            }
          },
          {
            "code": {
              "coding": [
                {
                  "system": "http://loinc.org",
                  "code": "8462-4",
                  "display": "Diastolic blood pressure",
                  "userSelected": false
                }
              ],
              "text": "Diastolic blood pressure"
            },
            "valueQuantity": {
              "value": 63,
              "unit": "mmHg",
              "system": "http://unitsofmeasure.org",
              "code": "mm[Hg]"
            }
          }
        ]
      },
      "request": {
        "method": "POST",
        "url": "Observation"
      }
    },
    {
      "resource": {
        "resourceType": "Observation",
        "status": "final",
        "category": [
          {
            "coding": [
              {
                "system": "http://hl7.org/fhir/observation-category",
                "code": "vital-signs",
                "display": "Vital Signs",
                "userSelected": false
              }
            ],
            "text": "Vital Signs"
          }
        ],
        "code": {
          "coding": [
            {
              "system": "http://loinc.org",
              "code": "8480-6",
              "display": "Systolic blood pressure",
              "userSelected": false
            }
          ],
          "text": "Systolic blood pressure"
        },
        "subject": {
          "reference": "urn:uuid:05efabf0-4be2-4561-91ce-51548425acb9"
        },
        "effectiveDateTime": "2001-01-24T00:00:00-07:00",
        "valueQuantity": {
          "value": 100.0,
          "unit": "mm[Hg]",
          "system": "http://unitsofmeasure.org",
          "code": "mm[Hg]"
        }
      },
      "request": {
        "method": "POST",
        "url": "Observation"
      }
    },
    {
      "resource": {
        "resourceType": "Observation",
        "status": "final",
        "category": [
          {
            "coding": [
              {
                "system": "http://hl7.org/fhir/observation-category",
                "code": "vital-signs",
                "display": "Vital Signs",
                "userSelected": false
              }
            ],
            "text": "Vital Signs"
          }
        ],
        "code": {
          "coding": [
            {
              "system": "http://loinc.org",
              "code": "8462-4",
              "display": "Diastolic blood pressure",
              "userSelected": false
            }
          ],
          "text": "Diastolic blood pressure"
        },
        "subject": {
          "reference": "urn:uuid:05efabf0-4be2-4561-91ce-51548425acb9"
        },
        "effectiveDateTime": "2001-01-24T00:00:00-07:00",
        "valueQuantity": {
          "value": 63.0,
          "unit": "mm[Hg]",
          "system": "http://unitsofmeasure.org",
          "code": "mm[Hg]"
        }
      },
      "request": {
        "method": "POST",
        "url": "Observation"
      }
    },
    {
      "resource": {
        "resourceType": "Observation",
        "status": "final",
        "category": [
          {
            "coding": [
              {
                "system": "http://hl7.org/fhir/observation-category",
                "code": "vital-signs",
                "display": "Vital Signs",
                "userSelected": false
              }
            ],
            "text": "Vital Signs"
          }
        ],
        "code": {
          "coding": [
            {
              "system": "http://loinc.org",
              "code": "55284-4",
              "display": "Blood pressure systolic and diastolic",
              "userSelected": false
            }
          ],
          "text": "Blood pressure systolic and diastolic"
        },
        "subject": {
          "reference": "urn:uuid:05efabf0-4be2-4561-91ce-51548425acb9"
        },
        "encounter": {
          "reference": "urn:uuid:440c0655-0bf6-51b6-a1fa-527f475a6fbc"
        },
        "effectiveDateTime": "2001-01-25T00:00:00-07:00",
        "component": [
          {
            "code": {
              "coding": [
                {
                  "system": "http://loinc.org",
                  "code": "8480-6",
                  "display": "Systolic blood pressure",
                  "userSelected": false
                }
              ],
              "text": "Systolic blood pressure"
            },
            "valueQuantity": {
              "value": 129,
              "unit": "mmHg",
              "system": "http://unitsofmeasure.org",
              "code": "mm[Hg]"
            }
          },
          {
            "code": {
              "coding": [
                {
                  "system": "http://loinc.org",
                  "code": "8462-4",
                  "display": "Diastolic blood pressure",
                  "userSelected": false
                }
              ],
              "text": "Diastolic blood pressure"
            },
            "valueQuantity": {
              "value": 80,
              "unit": "mmHg",
              "system": "http://unitsofmeasure.org",
              "code": "mm[Hg]"
            }
          }
        ]
      },
      "request": {
        "method": "POST",
        "url": "Observation"
      }
    },
    {
      "resource": {
        "resourceType": "Observation",
        "status": "final",
        "category": [
          {
            "coding": [
              {
                "system": "http://hl7.org/fhir/observation-category",
                "code": "vital-signs",
                "display": "Vital Signs",
                "userSelected": false
              }
            ],
            "text": "Vital Signs"
          }
        ],
        "code": {
          "coding": [
            {
              "system": "http://loinc.org",
              "code": "8480-6",
              "display": "Systolic blood pressure",
              "userSelected": false
            }
          ],
          "text": "Systolic blood pressure"
        },
        "subject": {
          "reference": "urn:uuid:05efabf0-4be2-4561-91ce-51548425acb9"
        },
        "effectiveDateTime": "2001-01-25T00:00:00-07:00",
        "valueQuantity": {
          "value": 129.0,
          "unit": "mm[Hg]",
          "system": "http://unitsofmeasure.org",
          "code": "mm[Hg]"
        }
      },
      "request": {
        "method": "POST",
        "url": "Observation"
      }
    },
    {
      "resource": {
        "resourceType": "Observation",
        "status": "final",
        "category": [
          {
            "coding": [
              {
                "system": "http://hl7.org/fhir/observation-category",
                "code": "vital-signs",
                "display": "Vital Signs",
                "userSelected": false
              }
            ],
            "text": "Vital Signs"
          }
        ],
        "code": {
          "coding": [
            {
              "system": "http://loinc.org",
              "code": "8462-4",
              "display": "Diastolic blood pressure",
              "userSelected": false
            }
          ],
          "text": "Diastolic blood pressure"
        },
        "subject": {
          "reference": "urn:uuid:05efabf0-4be2-4561-91ce-51548425acb9"
        },
        "effectiveDateTime": "2001-01-25T00:00:00-07:00",
        "valueQuantity": {
          "value": 80.0,
          "unit": "mm[Hg]",
          "system": "http://unitsofmeasure.org",
          "code": "mm[Hg]"
        }
      },
      "request": {
        "method": "POST",
        "url": "Observation"
      }
    },
    {
      "resource": {
        "resourceType": "Observation",
        "status": "final",
        "category": [
          {
            "coding": [
              {
                "system": "http://hl7.org/fhir/observation-category",
                "code": "vital-signs",
                "display": "Vital Signs",
                "userSelected": false
              }
            ],
            "text": "Vital Signs"
          }
        ],
        "code": {
          "coding": [
            {
              "system": "http://loinc.org",
              "code": "55284-4",
              "display": "Blood pressure systolic and diastolic",
              "userSelected": false
            }
          ],
          "text": "Blood pressure systolic and diastolic"
        },
        "subject": {
          "reference": "urn:uuid:05efabf0-4be2-4561-91ce-51548425acb9"
        },
        "encounter": {
          "reference": "urn:uuid:b79cb3ba-745e-5d9a-8903-4a02327a7e09"
        },
        "effectiveDateTime": "2001-10-31T00:00:00-07:00",
        "component": [
          {
            "code": {
              "coding": [
                {
                  "system": "http://loinc.org",
                  "code": "8480-6",
                  "display": "Systolic blood pressure",
                  "userSelected": false
                }
              ],
              "text": "Systolic blood pressure"
            },
            "valueQuantity": {
              "value": 133,
              "unit": "mmHg",
              "system": "http://unitsofmeasure.org",
              "code": "mm[Hg]"
            }
          },
          {
            "code": {
              "coding": [
                {
                  "system": "http://loinc.org",
                  "code": "8462-4",
                  "display": "Diastolic blood pressure",
                  "userSelected": false
                }
              ],
              "text": "Diastolic blood pressure"
            },
            "valueQuantity": {
              "value": 82,
              "unit": "mmHg",
              "system": "http://unitsofmeasure.org",
              "code": "mm[Hg]"
            }
          }
        ]
      },
      "request": {
        "method": "POST",
        "url": "Observation"
      }
    },
    {
      "resource": {
        "resourceType": "Observation",
        "status": "final",
        "category": [
          {
            "coding": [
              {
                "system": "http://hl7.org/fhir/observation-category",
                "code": "vital-signs",
                "display": "Vital Signs",
                "userSelected": false
              }
            ],
            "text": "Vital Signs"
          }
        ],
        "code": {
          "coding": [
            {
              "system": "http://loinc.org",
              "code": "8480-6",
              "display": "Systolic blood pressure",
              "userSelected": false
            }
          ],
          "text": "Systolic blood pressure"
        },
        "subject": {
          "reference": "urn:uuid:05efabf0-4be2-4561-91ce-51548425acb9"
        },
        "effectiveDateTime": "2001-10-31T00:00:00-07:00",
        "valueQuantity": {
          "value": 133.0,
          "unit": "mm[Hg]",
          "system": "http://unitsofmeasure.org",
          "code": "mm[Hg]"
        }
      },
      "request": {
        "method": "POST",
        "url": "Observation"
      }
    },
    {
      "resource": {
        "resourceType": "Observation",
        "status": "final",
        "category": [
          {
            "coding": [
              {
                "system": "http://hl7.org/fhir/observation-category",
                "code": "vital-signs",
                "display": "Vital Signs",
                "userSelected": false
              }
            ],
            "text": "Vital Signs"
          }
        ],
        "code": {
          "coding": [
            {
              "system": "http://loinc.org",
              "code": "8462-4",
              "display": "Diastolic blood pressure",
              "userSelected": false
            }
          ],
          "text": "Diastolic blood pressure"
        },
        "subject": {
          "reference": "urn:uuid:05efabf0-4be2-4561-91ce-51548425acb9"
        },
        "effectiveDateTime": "2001-10-31T00:00:00-07:00",
        "valueQuantity": {
          "value": 82.0,
          "unit": "mm[Hg]",
          "system": "http://unitsofmeasure.org",
          "code": "mm[Hg]"
        }
      },
      "request": {
        "method": "POST",
        "url": "Observation"
      }
    },
    {
      "resource": {
        "resourceType": "Observation",
        "status": "final",
        "category": [
          {
            "coding": [
              {
                "system": "http://hl7.org/fhir/observation-category",
                "code": "vital-signs",
                "display": "Vital Signs",
                "userSelected": false
              }
            ],
            "text": "Vital Signs"
          }
        ],
        "code": {
          "coding": [
            {
              "system": "http://loinc.org",
              "code": "55284-4",
              "display": "Blood pressure systolic and diastolic",
              "userSelected": false
            }
          ],
          "text": "Blood pressure systolic and diastolic"
        },
        "subject": {
          "reference": "urn:uuid:05efabf0-4be2-4561-91ce-51548425acb9"
        },
        "encounter": {
          "reference": "urn:uuid:fb3463a0-7d6e-54a3-bcd8-1b93388c648d"
        },
        "effectiveDateTime": "2001-11-01T00:00:00-07:00",
        "component": [
          {
            "code": {
              "coding": [
                {
                  "system": "http://loinc.org",
                  "code": "8480-6",
                  "display": "Systolic blood pressure",
                  "userSelected": false
                }
              ],
              "text": "Systolic blood pressure"
            },
            "valueQuantity": {
              "value": 138,
              "unit": "mmHg",
              "system": "http://unitsofmeasure.org",
              "code": "mm[Hg]"
            }
          },
          {
            "code": {
              "coding": [
                {
                  "system": "http://loinc.org",
                  "code": "8462-4",
                  "display": "Diastolic blood pressure",
                  "userSelected": false
                }
              ],
              "text": "Diastolic blood pressure"
            },
            "valueQuantity": {
              "value": 85,
              "unit": "mmHg",
              "system": "http://unitsofmeasure.org",
              "code": "mm[Hg]"
            }
          }
        ]
      },
      "request": {
        "method": "POST",
        "url": "Observation"
      }
    },
    {
      "resource": {
        "resourceType": "Observation",
        "status": "final",
        "category": [
          {
            "coding": [
              {
                "system": "http://hl7.org/fhir/observation-category",
                "code": "vital-signs",
                "display": "Vital Signs",
                "userSelected": false
              }
            ],
            "text": "Vital Signs"
          }
        ],
        "code": {
          "coding": [
            {
              "system": "http://loinc.org",
              "code": "8480-6",
              "display": "Systolic blood pressure",
              "userSelected": false
            }
          ],
          "text": "Systolic blood pressure"
        },
        "subject": {
          "reference": "urn:uuid:05efabf0-4be2-4561-91ce-51548425acb9"
        },
        "effectiveDateTime": "2001-11-01T00:00:00-07:00",
        "valueQuantity": {
          "value": 138.0,
          "unit": "mm[Hg]",
          "system": "http://unitsofmeasure.org",
          "code": "mm[Hg]"
        }
      },
      "request": {
        "method": "POST",
        "url": "Observation"
      }
    },
    {
      "resource": {
        "resourceType": "Observation",
        "status": "final",
        "category": [
          {
            "coding": [
              {
                "system": "http://hl7.org/fhir/observation-category",
                "code": "vital-signs",
                "display": "Vital Signs",
                "userSelected": false
              }
            ],
            "text": "Vital Signs"
          }
        ],
        "code": {
          "coding": [
            {
              "system": "http://loinc.org",
              "code": "8462-4",
              "display": "Diastolic blood pressure",
              "userSelected": false
            }
          ],
          "text": "Diastolic blood pressure"
        },
        "subject": {
          "reference": "urn:uuid:05efabf0-4be2-4561-91ce-51548425acb9"
        },
        "effectiveDateTime": "2001-11-01T00:00:00-07:00",
        "valueQuantity": {
          "value": 85.0,
          "unit": "mm[Hg]",
          "system": "http://unitsofmeasure.org",
          "code": "mm[Hg]"
        }
      },
      "request": {
        "method": "POST",
        "url": "Observation"
      }
    },
    {
      "resource": {
        "resourceType": "Observation",
        "status": "final",
        "category": [
          {
            "coding": [
              {
                "system": "http://hl7.org/fhir/observation-category",
                "code": "vital-signs",
                "display": "Vital Signs",
                "userSelected": false
              }
            ],
            "text": "Vital Signs"
          }
        ],
        "code": {
          "coding": [
            {
              "system": "http://loinc.org",
              "code": "55284-4",
              "display": "Blood pressure systolic and diastolic",
              "userSelected": false
            }
          ],
          "text": "Blood pressure systolic and diastolic"
        },
        "subject": {
          "reference": "urn:uuid:05efabf0-4be2-4561-91ce-51548425acb9"
        },
        "encounter": {
          "reference": "urn:uuid:efe7eedd-89c5-56f5-984c-0712ee41a2eb"
        },
        "effectiveDateTime": "2001-11-02T00:00:00-07:00",
        "component": [
          {
            "code": {
              "coding": [
                {
                  "system": "http://loinc.org",
                  "code": "8480-6",
                  "display": "Systolic blood pressure",
                  "userSelected": false
                }
              ],
              "text": "Systolic blood pressure"
            },
            "valueQuantity": {
              "value": 85,
              "unit": "mmHg",
              "system": "http://unitsofmeasure.org",
              "code": "mm[Hg]"
            }
          },
          {
            "code": {
              "coding": [
                {
                  "system": "http://loinc.org",
                  "code": "8462-4",
                  "display": "Diastolic blood pressure",
                  "userSelected": false
                }
              ],
              "text": "Diastolic blood pressure"
            },
            "valueQuantity": {
              "value": 54,
              "unit": "mmHg",
              "system": "http://unitsofmeasure.org",
              "code": "mm[Hg]"
            }
          }
        ]
      },
      "request": {
        "method": "POST",
        "url": "Observation"
      }
    },
    {
      "resource": {
        "resourceType": "Observation",
        "status": "final",
        "category": [
          {
            "coding": [
              {
                "system": "http://hl7.org/fhir/observation-category",
                "code": "vital-signs",
                "display": "Vital Signs",
                "userSelected": false
              }
            ],
            "text": "Vital Signs"
          }
        ],
        "code": {
          "coding": [
            {
              "system": "http://loinc.org",
              "code": "8480-6",
              "display": "Systolic blood pressure",
              "userSelected": false
            }
          ],
          "text": "Systolic blood pressure"
        },
        "subject": {
          "reference": "urn:uuid:05efabf0-4be2-4561-91ce-51548425acb9"
        },
        "effectiveDateTime": "2001-11-02T00:00:00-07:00",
        "valueQuantity": {
          "value": 85.0,
          "unit": "mm[Hg]",
          "system": "http://unitsofmeasure.org",
          "code": "mm[Hg]"
        }
      },
      "request": {
        "method": "POST",
        "url": "Observation"
      }
    },
    {
      "resource": {
        "resourceType": "Observation",
        "status": "final",
        "category": [
          {
            "coding": [
              {
                "system": "http://hl7.org/fhir/observation-category",
                "code": "vital-signs",
                "display": "Vital Signs",
                "userSelected": false
              }
            ],
            "text": "Vital Signs"
          }
        ],
        "code": {
          "coding": [
            {
              "system": "http://loinc.org",
              "code": "8462-4",
              "display": "Diastolic blood pressure",
              "userSelected": false
            }
          ],
          "text": "Diastolic blood pressure"
        },
        "subject": {
          "reference": "urn:uuid:05efabf0-4be2-4561-91ce-51548425acb9"
        },
        "effectiveDateTime": "2001-11-02T00:00:00-07:00",
        "valueQuantity": {
          "value": 54.0,
          "unit": "mm[Hg]",
          "system": "http://unitsofmeasure.org",
          "code": "mm[Hg]"
        }
      },
      "request": {
        "method": "POST",
        "url": "Observation"
      }
    },
    {
      "resource": {
        "resourceType": "Observation",
        "status": "final",
        "category": [
          {
            "coding": [
              {
                "system": "http://hl7.org/fhir/observation-category",
                "code": "vital-signs",
                "display": "Vital Signs",
                "userSelected": false
              }
            ],
            "text": "Vital Signs"
          }
        ],
        "code": {
          "coding": [
            {
              "system": "http://loinc.org",
              "code": "55284-4",
              "display": "Blood pressure systolic and diastolic",
              "userSelected": false
            }
          ],
          "text": "Blood pressure systolic and diastolic"
        },
        "subject": {
          "reference": "urn:uuid:05efabf0-4be2-4561-91ce-51548425acb9"
        },
        "encounter": {
          "reference": "urn:uuid:c40b683b-ac7b-5d6b-b0eb-549cb20169b9"
        },
        "effectiveDateTime": "2001-11-05T00:00:00-07:00",
        "component": [
          {
            "code": {
              "coding": [
                {
                  "system": "http://loinc.org",
                  "code": "8480-6",
                  "display": "Systolic blood pressure",
                  "userSelected": false
                }
              ],
              "text": "Systolic blood pressure"
            },
            "valueQuantity": {
              "value": 133,
              "unit": "mmHg",
              "system": "http://unitsofmeasure.org",
              "code": "mm[Hg]"
            }
          },
          {
            "code": {
              "coding": [
                {
                  "system": "http://loinc.org",
                  "code": "8462-4",
                  "display": "Diastolic blood pressure",
                  "userSelected": false
                }
              ],
              "text": "Diastolic blood pressure"
            },
            "valueQuantity": {
              "value": 82,
              "unit": "mmHg",
              "system": "http://unitsofmeasure.org",
              "code": "mm[Hg]"
            }
          }
        ]
      },
      "request": {
        "method": "POST",
        "url": "Observation"
      }
    },
    {
      "resource": {
        "resourceType": "Observation",
        "status": "final",
        "category": [
          {
            "coding": [
              {
                "system": "http://hl7.org/fhir/observation-category",
                "code": "vital-signs",
                "display": "Vital Signs",
                "userSelected": false
              }
            ],
            "text": "Vital Signs"
          }
        ],
        "code": {
          "coding": [
            {
              "system": "http://loinc.org",
              "code": "8480-6",
              "display": "Systolic blood pressure",
              "userSelected": false
            }
          ],
          "text": "Systolic blood pressure"
        },
        "subject": {
          "reference": "urn:uuid:05efabf0-4be2-4561-91ce-51548425acb9"
        },
        "effectiveDateTime": "2001-11-05T00:00:00-07:00",
        "valueQuantity": {
          "value": 133.0,
          "unit": "mm[Hg]",
          "system": "http://unitsofmeasure.org",
          "code": "mm[Hg]"
        }
      },
      "request": {
        "method": "POST",
        "url": "Observation"
      }
    },
    {
      "resource": {
        "resourceType": "Observation",
        "status": "final",
        "category": [
          {
            "coding": [
              {
                "system": "http://hl7.org/fhir/observation-category",
                "code": "vital-signs",
                "display": "Vital Signs",
                "userSelected": false
              }
            ],
            "text": "Vital Signs"
          }
        ],
        "code": {
          "coding": [
            {
              "system": "http://loinc.org",
              "code": "8462-4",
              "display": "Diastolic blood pressure",
              "userSelected": false
            }
          ],
          "text": "Diastolic blood pressure"
        },
        "subject": {
          "reference": "urn:uuid:05efabf0-4be2-4561-91ce-51548425acb9"
        },
        "effectiveDateTime": "2001-11-05T00:00:00-07:00",
        "valueQuantity": {
          "value": 82.0,
          "unit": "mm[Hg]",
          "system": "http://unitsofmeasure.org",
          "code": "mm[Hg]"
        }
      },
      "request": {
        "method": "POST",
        "url": "Observation"
      }
    },
    {
      "resource": {
        "resourceType": "Observation",
        "status": "final",
        "category": [
          {
            "coding": [
              {
                "system": "http://hl7.org/fhir/observation-category",
                "code": "vital-signs",
                "display": "Vital Signs",
                "userSelected": false
              }
            ],
            "text": "Vital Signs"
          }
        ],
        "code": {
          "coding": [
            {
              "system": "http://loinc.org",
              "code": "55284-4",
              "display": "Blood pressure systolic and diastolic",
              "userSelected": false
            }
          ],
          "text": "Blood pressure systolic and diastolic"
        },
        "subject": {
          "reference": "urn:uuid:05efabf0-4be2-4561-91ce-51548425acb9"
        },
        "encounter": {
          "reference": "urn:uuid:440c0655-0bf6-51b6-a1fa-527f475a6fbc"
        },
        "effectiveDateTime": "2005-02-09T00:00:00-07:00",
        "component": [
          {
            "code": {
              "coding": [
                {
                  "system": "http://loinc.org",
                  "code": "8480-6",
                  "display": "Systolic blood pressure",
                  "userSelected": false
                }
              ],
              "text": "Systolic blood pressure"
            },
            "valueQuantity": {
              "value": 109,
              "unit": "mmHg",
              "system": "http://unitsofmeasure.org",
              "code": "mm[Hg]"
            }
          },
          {
            "code": {
              "coding": [
                {
                  "system": "http://loinc.org",
                  "code": "8462-4",
                  "display": "Diastolic blood pressure",
                  "userSelected": false
                }
              ],
              "text": "Diastolic blood pressure"
            },
            "valueQuantity": {
              "value": 66,
              "unit": "mmHg",
              "system": "http://unitsofmeasure.org",
              "code": "mm[Hg]"
            }
          }
        ]
      },
      "request": {
        "method": "POST",
        "url": "Observation"
      }
    },
    {
      "resource": {
        "resourceType": "Observation",
        "status": "final",
        "category": [
          {
            "coding": [
              {
                "system": "http://hl7.org/fhir/observation-category",
                "code": "vital-signs",
                "display": "Vital Signs",
                "userSelected": false
              }
            ],
            "text": "Vital Signs"
          }
        ],
        "code": {
          "coding": [
            {
              "system": "http://loinc.org",
              "code": "8480-6",
              "display": "Systolic blood pressure",
              "userSelected": false
            }
          ],
          "text": "Systolic blood pressure"
        },
        "subject": {
          "reference": "urn:uuid:05efabf0-4be2-4561-91ce-51548425acb9"
        },
        "effectiveDateTime": "2005-02-09T00:00:00-07:00",
        "valueQuantity": {
          "value": 109.0,
          "unit": "mm[Hg]",
          "system": "http://unitsofmeasure.org",
          "code": "mm[Hg]"
        }
      },
      "request": {
        "method": "POST",
        "url": "Observation"
      }
    },
    {
      "resource": {
        "resourceType": "Observation",
        "status": "final",
        "category": [
          {
            "coding": [
              {
                "system": "http://hl7.org/fhir/observation-category",
                "code": "vital-signs",
                "display": "Vital Signs",
                "userSelected": false
              }
            ],
            "text": "Vital Signs"
          }
        ],
        "code": {
          "coding": [
            {
              "system": "http://loinc.org",
              "code": "8462-4",
              "display": "Diastolic blood pressure",
              "userSelected": false
            }
          ],
          "text": "Diastolic blood pressure"
        },
        "subject": {
          "reference": "urn:uuid:05efabf0-4be2-4561-91ce-51548425acb9"
        },
        "effectiveDateTime": "2005-02-09T00:00:00-07:00",
        "valueQuantity": {
          "value": 66.0,
          "unit": "mm[Hg]",
          "system": "http://unitsofmeasure.org",
          "code": "mm[Hg]"
        }
      },
      "request": {
        "method": "POST",
        "url": "Observation"
      }
    },
    {
      "resource": {
        "resourceType": "Observation",
        "status": "final",
        "category": [
          {
            "coding": [
              {
                "system": "http://hl7.org/fhir/observation-category",
                "code": "vital-signs",
                "display": "Vital Signs",
                "userSelected": false
              }
            ],
            "text": "Vital Signs"
          }
        ],
        "code": {
          "coding": [
            {
              "system": "http://loinc.org",
              "code": "55284-4",
              "display": "Blood pressure systolic and diastolic",
              "userSelected": false
            }
          ],
          "text": "Blood pressure systolic and diastolic"
        },
        "subject": {
          "reference": "urn:uuid:05efabf0-4be2-4561-91ce-51548425acb9"
        },
        "encounter": {
          "reference": "urn:uuid:b79cb3ba-745e-5d9a-8903-4a02327a7e09"
        },
        "effectiveDateTime": "2005-02-10T00:00:00-07:00",
        "component": [
          {
            "code": {
              "coding": [
                {
                  "system": "http://loinc.org",
                  "code": "8480-6",
                  "display": "Systolic blood pressure",
                  "userSelected": false
                }
              ],
              "text": "Systolic blood pressure"
            },
            "valueQuantity": {
              "value": 97,
              "unit": "mmHg",
              "system": "http://unitsofmeasure.org",
              "code": "mm[Hg]"
            }
          },
          {
            "code": {
              "coding": [
                {
                  "system": "http://loinc.org",
                  "code": "8462-4",
                  "display": "Diastolic blood pressure",
                  "userSelected": false
                }
              ],
              "text": "Diastolic blood pressure"
            },
            "valueQuantity": {
              "value": 58,
              "unit": "mmHg",
              "system": "http://unitsofmeasure.org",
              "code": "mm[Hg]"
            }
          }
        ]
      },
      "request": {
        "method": "POST",
        "url": "Observation"
      }
    },
    {
      "resource": {
        "resourceType": "Observation",
        "status": "final",
        "category": [
          {
            "coding": [
              {
                "system": "http://hl7.org/fhir/observation-category",
                "code": "vital-signs",
                "display": "Vital Signs",
                "userSelected": false
              }
            ],
            "text": "Vital Signs"
          }
        ],
        "code": {
          "coding": [
            {
              "system": "http://loinc.org",
              "code": "8480-6",
              "display": "Systolic blood pressure",
              "userSelected": false
            }
          ],
          "text": "Systolic blood pressure"
        },
        "subject": {
          "reference": "urn:uuid:05efabf0-4be2-4561-91ce-51548425acb9"
        },
        "effectiveDateTime": "2005-02-10T00:00:00-07:00",
        "valueQuantity": {
          "value": 97.0,
          "unit": "mm[Hg]",
          "system": "http://unitsofmeasure.org",
          "code": "mm[Hg]"
        }
      },
      "request": {
        "method": "POST",
        "url": "Observation"
      }
    },
    {
      "resource": {
        "resourceType": "Observation",
        "status": "final",
        "category": [
          {
            "coding": [
              {
                "system": "http://hl7.org/fhir/observation-category",
                "code": "vital-signs",
                "display": "Vital Signs",
                "userSelected": false
              }
            ],
            "text": "Vital Signs"
          }
        ],
        "code": {
          "coding": [
            {
              "system": "http://loinc.org",
              "code": "8462-4",
              "display": "Diastolic blood pressure",
              "userSelected": false
            }
          ],
          "text": "Diastolic blood pressure"
        },
        "subject": {
          "reference": "urn:uuid:05efabf0-4be2-4561-91ce-51548425acb9"
        },
        "effectiveDateTime": "2005-02-10T00:00:00-07:00",
        "valueQuantity": {
          "value": 58.0,
          "unit": "mm[Hg]",
          "system": "http://unitsofmeasure.org",
          "code": "mm[Hg]"
        }
      },
      "request": {
        "method": "POST",
        "url": "Observation"
      }
    },
    {
      "resource": {
        "resourceType": "Observation",
        "status": "final",
        "category": [
          {
            "coding": [
              {
                "system": "http://hl7.org/fhir/observation-category",
                "code": "vital-signs",
                "display": "Vital Signs",
                "userSelected": false
              }
            ],
            "text": "Vital Signs"
          }
        ],
        "code": {
          "coding": [
            {
              "system": "http://loinc.org",
              "code": "55284-4",
              "display": "Blood pressure systolic and diastolic",
              "userSelected": false
            }
          ],
          "text": "Blood pressure systolic and diastolic"
        },
        "subject": {
          "reference": "urn:uuid:05efabf0-4be2-4561-91ce-51548425acb9"
        },
        "encounter": {
          "reference": "urn:uuid:fb3463a0-7d6e-54a3-bcd8-1b93388c648d"
        },
        "effectiveDateTime": "2005-02-23T00:00:00-07:00",
        "component": [
          {
            "code": {
              "coding": [
                {
                  "system": "http://loinc.org",
                  "code": "8480-6",
                  "display": "Systolic blood pressure",
                  "userSelected": false
                }
              ],
              "text": "Systolic blood pressure"
            },
            "valueQuantity": {
              "value": 60,
              "unit": "mmHg",
              "system": "http://unitsofmeasure.org",
              "code": "mm[Hg]"
            }
          },
          {
            "code": {
              "coding": [
                {
                  "system": "http://loinc.org",
                  "code": "8462-4",
                  "display": "Diastolic blood pressure",
                  "userSelected": false
                }
              ],
              "text": "Diastolic blood pressure"
            },
            "valueQuantity": {
              "value": 35,
              "unit": "mmHg",
              "system": "http://unitsofmeasure.org",
              "code": "mm[Hg]"
            }
          }
        ]
      },
      "request": {
        "method": "POST",
        "url": "Observation"
      }
    },
    {
      "resource": {
        "resourceType": "Observation",
        "status": "final",
        "category": [
          {
            "coding": [
              {
                "system": "http://hl7.org/fhir/observation-category",
                "code": "vital-signs",
                "display": "Vital Signs",
                "userSelected": false
              }
            ],
            "text": "Vital Signs"
          }
        ],
        "code": {
          "coding": [
            {
              "system": "http://loinc.org",
              "code": "8480-6",
              "display": "Systolic blood pressure",
              "userSelected": false
            }
          ],
          "text": "Systolic blood pressure"
        },
        "subject": {
          "reference": "urn:uuid:05efabf0-4be2-4561-91ce-51548425acb9"
        },
        "effectiveDateTime": "2005-02-23T00:00:00-07:00",
        "valueQuantity": {
          "value": 60.0,
          "unit": "mm[Hg]",
          "system": "http://unitsofmeasure.org",
          "code": "mm[Hg]"
        }
      },
      "request": {
        "method": "POST",
        "url": "Observation"
      }
    },
    {
      "resource": {
        "resourceType": "Observation",
        "status": "final",
        "category": [
          {
            "coding": [
              {
                "system": "http://hl7.org/fhir/observation-category",
                "code": "vital-signs",
                "display": "Vital Signs",
                "userSelected": false
              }
            ],
            "text": "Vital Signs"
          }
        ],
        "code": {
          "coding": [
            {
              "system": "http://loinc.org",
              "code": "8462-4",
              "display": "Diastolic blood pressure",
              "userSelected": false
            }
          ],
          "text": "Diastolic blood pressure"
        },
        "subject": {
          "reference": "urn:uuid:05efabf0-4be2-4561-91ce-51548425acb9"
        },
        "effectiveDateTime": "2005-02-23T00:00:00-07:00",
        "valueQuantity": {
          "value": 35.0,
          "unit": "mm[Hg]",
          "system": "http://unitsofmeasure.org",
          "code": "mm[Hg]"
        }
      },
      "request": {
        "method": "POST",
        "url": "Observation"
      }
    },
    {
      "resource": {
        "resourceType": "Observation",
        "status": "final",
        "category": [
          {
            "coding": [
              {
                "system": "http://hl7.org/fhir/observation-category",
                "code": "vital-signs",
                "display": "Vital Signs",
                "userSelected": false
              }
            ],
            "text": "Vital Signs"
          }
        ],
        "code": {
          "coding": [
            {
              "system": "http://loinc.org",
              "code": "55284-4",
              "display": "Blood pressure systolic and diastolic",
              "userSelected": false
            }
          ],
          "text": "Blood pressure systolic and diastolic"
        },
        "subject": {
          "reference": "urn:uuid:05efabf0-4be2-4561-91ce-51548425acb9"
        },
        "encounter": {
          "reference": "urn:uuid:efe7eedd-89c5-56f5-984c-0712ee41a2eb"
        },
        "effectiveDateTime": "2005-02-24T00:00:00-07:00",
        "component": [
          {
            "code": {
              "coding": [
                {
                  "system": "http://loinc.org",
                  "code": "8480-6",
                  "display": "Systolic blood pressure",
                  "userSelected": false
                }
              ],
              "text": "Systolic blood pressure"
            },
            "valueQuantity": {
              "value": 128,
              "unit": "mmHg",
              "system": "http://unitsofmeasure.org",
              "code": "mm[Hg]"
            }
          },
          {
            "code": {
              "coding": [
                {
                  "system": "http://loinc.org",
                  "code": "8462-4",
                  "display": "Diastolic blood pressure",
                  "userSelected": false
                }
              ],
              "text": "Diastolic blood pressure"
            },
            "valueQuantity": {
              "value": 78,
              "unit": "mmHg",
              "system": "http://unitsofmeasure.org",
              "code": "mm[Hg]"
            }
          }
        ]
      },
      "request": {
        "method": "POST",
        "url": "Observation"
      }
    },
    {
      "resource": {
        "resourceType": "Observation",
        "status": "final",
        "category": [
          {
            "coding": [
              {
                "system": "http://hl7.org/fhir/observation-category",
                "code": "vital-signs",
                "display": "Vital Signs",
                "userSelected": false
              }
            ],
            "text": "Vital Signs"
          }
        ],
        "code": {
          "coding": [
            {
              "system": "http://loinc.org",
              "code": "8480-6",
              "display": "Systolic blood pressure",
              "userSelected": false
            }
          ],
          "text": "Systolic blood pressure"
        },
        "subject": {
          "reference": "urn:uuid:05efabf0-4be2-4561-91ce-51548425acb9"
        },
        "effectiveDateTime": "2005-02-24T00:00:00-07:00",
        "valueQuantity": {
          "value": 128.0,
          "unit": "mm[Hg]",
          "system": "http://unitsofmeasure.org",
          "code": "mm[Hg]"
        }
      },
      "request": {
        "method": "POST",
        "url": "Observation"
      }
    },
    {
      "resource": {
        "resourceType": "Observation",
        "status": "final",
        "category": [
          {
            "coding": [
              {
                "system": "http://hl7.org/fhir/observation-category",
                "code": "vital-signs",
                "display": "Vital Signs",
                "userSelected": false
              }
            ],
            "text": "Vital Signs"
          }
        ],
        "code": {
          "coding": [
            {
              "system": "http://loinc.org",
              "code": "8462-4",
              "display": "Diastolic blood pressure",
              "userSelected": false
            }
          ],
          "text": "Diastolic blood pressure"
        },
        "subject": {
          "reference": "urn:uuid:05efabf0-4be2-4561-91ce-51548425acb9"
        },
        "effectiveDateTime": "2005-02-24T00:00:00-07:00",
        "valueQuantity": {
          "value": 78.0,
          "unit": "mm[Hg]",
          "system": "http://unitsofmeasure.org",
          "code": "mm[Hg]"
        }
      },
      "request": {
        "method": "POST",
        "url": "Observation"
      }
    },
    {
      "resource": {
        "resourceType": "Observation",
        "status": "final",
        "category": [
          {
            "coding": [
              {
                "system": "http://hl7.org/fhir/observation-category",
                "code": "vital-signs",
                "display": "Vital Signs",
                "userSelected": false
              }
            ],
            "text": "Vital Signs"
          }
        ],
        "code": {
          "coding": [
            {
              "system": "http://loinc.org",
              "code": "55284-4",
              "display": "Blood pressure systolic and diastolic",
              "userSelected": false
            }
          ],
          "text": "Blood pressure systolic and diastolic"
        },
        "subject": {
          "reference": "urn:uuid:05efabf0-4be2-4561-91ce-51548425acb9"
        },
        "encounter": {
          "reference": "urn:uuid:c40b683b-ac7b-5d6b-b0eb-549cb20169b9"
        },
        "effectiveDateTime": "2005-02-25T00:00:00-07:00",
        "component": [
          {
            "code": {
              "coding": [
                {
                  "system": "http://loinc.org",
                  "code": "8480-6",
                  "display": "Systolic blood pressure",
                  "userSelected": false
                }
              ],
              "text": "Systolic blood pressure"
            },
            "valueQuantity": {
              "value": 109,
              "unit": "mmHg",
              "system": "http://unitsofmeasure.org",
              "code": "mm[Hg]"
            }
          },
          {
            "code": {
              "coding": [
                {
                  "system": "http://loinc.org",
                  "code": "8462-4",
                  "display": "Diastolic blood pressure",
                  "userSelected": false
                }
              ],
              "text": "Diastolic blood pressure"
            },
            "valueQuantity": {
              "value": 66,
              "unit": "mmHg",
              "system": "http://unitsofmeasure.org",
              "code": "mm[Hg]"
            }
          }
        ]
      },
      "request": {
        "method": "POST",
        "url": "Observation"
      }
    },
    {
      "resource": {
        "resourceType": "Observation",
        "status": "final",
        "category": [
          {
            "coding": [
              {
                "system": "http://hl7.org/fhir/observation-category",
                "code": "vital-signs",
                "display": "Vital Signs",
                "userSelected": false
              }
            ],
            "text": "Vital Signs"
          }
        ],
        "code": {
          "coding": [
            {
              "system": "http://loinc.org",
              "code": "8480-6",
              "display": "Systolic blood pressure",
              "userSelected": false
            }
          ],
          "text": "Systolic blood pressure"
        },
        "subject": {
          "reference": "urn:uuid:05efabf0-4be2-4561-91ce-51548425acb9"
        },
        "effectiveDateTime": "2005-02-25T00:00:00-07:00",
        "valueQuantity": {
          "value": 109.0,
          "unit": "mm[Hg]",
          "system": "http://unitsofmeasure.org",
          "code": "mm[Hg]"
        }
      },
      "request": {
        "method": "POST",
        "url": "Observation"
      }
    },
    {
      "resource": {
        "resourceType": "Condition",
        "clinicalStatus": {
          "coding": [
            {
              "system": "http://hl7.org/fhir/condition-clinical",
              "code": "active"
            }
          ]
        },
        "verificationStatus": {
          "coding": [
            {
              "system": "http://hl7.org/fhir/condition-ver-status",
              "code": "confirmed"
            }
          ]
        },
        "code": {
          "coding": [
            {
              "system": "http://snomed.info/sct",
              "code": "48167000",
              "display": "Amnesia",
              "userSelected": false
            }
          ],
          "text": "Amnesia"
        },
        "subject": {
          "reference": "urn:uuid:05efabf0-4be2-4561-91ce-51548425acb9"
        },
        "onsetDateTime": "2005-05-22T00:00:00-06:00"
      },
      "request": {
        "method": "POST",
        "url": "Condition"
      }
    },
    {
      "resource": {
        "resourceType": "Condition",
        "clinicalStatus": {
          "coding": [
            {
              "system": "http://hl7.org/fhir/condition-clinical",
              "code": "active"
            }
          ]
        },
        "verificationStatus": {
          "coding": [
            {
              "system": "http://hl7.org/fhir/condition-ver-status",
              "code": "confirmed"
            }
          ]
        },
        "code": {
          "coding": [
            {
              "system": "http://snomed.info/sct",
              "code": "1201005",
              "display": "Benign essential hypertension",
              "userSelected": false
            }
          ],
          "text": "Benign essential hypertension"
        },
        "subject": {
          "reference": "urn:uuid:05efabf0-4be2-4561-91ce-51548425acb9"
        },
        "onsetDateTime": "2007-07-11T00:00:00-06:00"
      },
      "request": {
        "method": "POST",
        "url": "Condition"
      }
    },
    {
      "resource": {
        "resourceType": "Condition",
        "clinicalStatus": {
          "coding": [
            {
              "system": "http://hl7.org/fhir/condition-clinical",
              "code": "active"
            }
          ]
        },
        "verificationStatus": {
          "coding": [
            {
              "system": "http://hl7.org/fhir/condition-ver-status",
              "code": "confirmed"
            }
          ]
        },
        "code": {
          "coding": [
            {
              "system": "http://snomed.info/sct",
              "code": "396275006",
              "display": "Osteoarthritis",
              "userSelected": false
            }
          ],
          "text": "Osteoarthritis"
        },
        "subject": {
          "reference": "urn:uuid:05efabf0-4be2-4561-91ce-51548425acb9"
        },
        "onsetDateTime": "2007-07-11T00:00:00-06:00"
      },
      "request": {
        "method": "POST",
        "url": "Condition"
      }
    },
    {
      "resource": {
        "resourceType": "Condition",
        "clinicalStatus": {
          "coding": [
            {
              "system": "http://hl7.org/fhir/condition-clinical",
              "code": "active"
            }
          ]
        },
        "verificationStatus": {
          "coding": [
            {
              "system": "http://hl7.org/fhir/condition-ver-status",
              "code": "confirmed"
            }
          ]
        },
        "code": {
          "coding": [
            {
              "system": "http://snomed.info/sct",
              "code": "52448006",
              "display": "Other persistent mental disorders due to conditions classified elsewhere",
              "userSelected": false
            }
          ],
          "text": "Other persistent mental disorders due to conditions classified elsewhere"
        },
        "subject": {
          "reference": "urn:uuid:05efabf0-4be2-4561-91ce-51548425acb9"
        },
        "onsetDateTime": "2007-09-15T00:00:00-06:00"
      },
      "request": {
        "method": "POST",
        "url": "Condition"
      }
    },
    {
      "resource": {
        "resourceType": "Condition",
        "clinicalStatus": {
          "coding": [
            {
              "system": "http://hl7.org/fhir/condition-clinical",
              "code": "active"
            }
          ]
        },
        "verificationStatus": {
          "coding": [
            {
              "system": "http://hl7.org/fhir/condition-ver-status",
              "code": "confirmed"
            }
          ]
        },
        "code": {
          "coding": [
            {
              "system": "http://snomed.info/sct",
              "code": "429998004",
              "display": "Vascular dementia, uncomplicated",
              "userSelected": false
            }
          ],
          "text": "Vascular dementia, uncomplicated"
        },
        "subject": {
          "reference": "urn:uuid:05efabf0-4be2-4561-91ce-51548425acb9"
        },
        "onsetDateTime": "2007-11-17T00:00:00-07:00"
      },
      "request": {
        "method": "POST",
        "url": "Condition"
      }
    },
    {
      "resource": {
        "resourceType": "Condition",
        "clinicalStatus": {
          "coding": [
            {
              "system": "http://hl7.org/fhir/condition-clinical",
              "code": "active"
            }
          ]
        },
        "verificationStatus": {
          "coding": [
            {
              "system": "http://hl7.org/fhir/condition-ver-status",
              "code": "confirmed"
            }
          ]
        },
        "code": {
          "coding": [
            {
              "system": "http://snomed.info/sct",
              "code": "38341003",
              "display": "Essential hypertension",
              "userSelected": false
            }
          ],
          "text": "Essential hypertension"
        },
        "subject": {
          "reference": "urn:uuid:05efabf0-4be2-4561-91ce-51548425acb9"
        },
        "onsetDateTime": "2008-04-20T00:00:00-06:00"
      },
      "request": {
        "method": "POST",
        "url": "Condition"
      }
    },
    {
      "resource": {
        "resourceType": "Condition",
        "clinicalStatus": {
          "coding": [
            {
              "system": "http://hl7.org/fhir/condition-clinical",
              "code": "active"
            }
          ]
        },
        "verificationStatus": {
          "coding": [
            {
              "system": "http://hl7.org/fhir/condition-ver-status",
              "code": "confirmed"
            }
          ]
        },
        "code": {
          "coding": [
            {
              "system": "http://snomed.info/sct",
              "code": "427359005",
              "display": "Disorder of lung",
              "userSelected": false
            }
          ],
          "text": "Disorder of lung"
        },
        "subject": {
          "reference": "urn:uuid:05efabf0-4be2-4561-91ce-51548425acb9"
        },
        "onsetDateTime": "2008-07-10T00:00:00-06:00"
      },
      "request": {
        "method": "POST",
        "url": "Condition"
      }
    },
    {
      "resource": {
        "resourceType": "Condition",
        "clinicalStatus": {
          "coding": [
            {
              "system": "http://hl7.org/fhir/condition-clinical",
              "code": "active"
            }
          ]
        },
        "verificationStatus": {
          "coding": [
            {
              "system": "http://hl7.org/fhir/condition-ver-status",
              "code": "confirmed"
            }
          ]
        },
        "code": {
          "coding": [
            {
              "system": "http://snomed.info/sct",
              "code": "26929004",
              "display": "Alzheimer's disease",
              "userSelected": false
            }
          ],
          "text": "Alzheimer's disease"
        },
        "subject": {
          "reference": "urn:uuid:05efabf0-4be2-4561-91ce-51548425acb9"
        },
        "onsetDateTime": "2008-08-08T00:00:00-06:00"
      },
      "request": {
        "method": "POST",
        "url": "Condition"
      }
    },
    {
      "resource": {
        "resourceType": "Condition",
        "clinicalStatus": {
          "coding": [
            {
              "system": "http://hl7.org/fhir/condition-clinical",
              "code": "active"
            }
          ]
        },
        "verificationStatus": {
          "coding": [
            {
              "system": "http://hl7.org/fhir/condition-ver-status",
              "code": "confirmed"
            }
          ]
        },
        "code": {
          "coding": [
            {
              "system": "http://snomed.info/sct",
              "code": "191519005",
              "display": "Dementia associated with another disease",
              "userSelected": false
            }
          ],
          "text": "Dementia associated with another disease"
        },
        "subject": {
          "reference": "urn:uuid:05efabf0-4be2-4561-91ce-51548425acb9"
        },
        "onsetDateTime": "2008-08-08T00:00:00-06:00"
      },
      "request": {
        "method": "POST",
        "url": "Condition"
      }
    },
    {
      "resource": {
        "resourceType": "Condition",
        "clinicalStatus": {
          "coding": [
            {
              "system": "http://hl7.org/fhir/condition-clinical",
              "code": "active"
            }
          ]
        },
        "verificationStatus": {
          "coding": [
            {
              "system": "http://hl7.org/fhir/condition-ver-status",
              "code": "confirmed"
            }
          ]
        },
        "code": {
          "coding": [
            {
              "system": "http://snomed.info/sct",
              "code": "185903001",
              "display": "Needs influenza immunization",
              "userSelected": false
            }
          ],
          "text": "Needs influenza immunization"
        },
        "subject": {
          "reference": "urn:uuid:05efabf0-4be2-4561-91ce-51548425acb9"
        },
        "onsetDateTime": "2008-08-08T00:00:00-06:00"
      },
      "request": {
        "method": "POST",
        "url": "Condition"
      }
    },
    {
      "resource": {
        "resourceType": "Condition",
        "clinicalStatus": {
          "coding": [
            {
              "system": "http://hl7.org/fhir/condition-clinical",
              "code": "active"
            }
          ]
        },
        "verificationStatus": {
          "coding": [
            {
              "system": "http://hl7.org/fhir/condition-ver-status",
              "code": "confirmed"
            }
          ]
        },
        "code": {
          "coding": [
            {
              "system": "http://snomed.info/sct",
              "code": "356744012",
              "display": "Thiopurine methyltransferase deficiency",
              "userSelected": false
            }
          ],
          "text": "Thiopurine methyltransferase deficiency"
        },
        "subject": {
          "reference": "urn:uuid:05efabf0-4be2-4561-91ce-51548425acb9"
        },
        "onsetDateTime": "2009-07-18T00:00:00-06:00"
      },
      "request": {
        "method": "POST",
        "url": "Condition"
      }
    },
    {
      "resource": {
        "resourceType": "Immunization",
        "status": "completed",
        "vaccineCode": {
          "coding": [
            {
              "system": "http://hl7.org/fhir/sid/cvx",
              "code": "140",
              "display": "Influenza, seasonal, injectable, preservative free"
            }
          ],
          "text": "Influenza, seasonal, injectable, preservative free"
        },
        "patient": {
          "reference": "urn:uuid:05efabf0-4be2-4561-91ce-51548425acb9"
        },
        "encounter": {
          "reference": "urn:uuid:b79cb3ba-745e-5d9a-8903-4a02327a7e09"
        },
        "primarySource": true
      },
      "request": {
        "method": "POST",
        "url": "Immunization"
      }
    },
    {
      "resource": {
        "resourceType": "Immunization",
        "status": "completed",
        "vaccineCode": {
          "coding": [
            {
              "system": "http://hl7.org/fhir/sid/cvx",
              "code": "140",
              "display": "Influenza, seasonal, injectable, preservative free"
            }
          ],
          "text": "Influenza, seasonal, injectable, preservative free"
        },
        "patient": {
          "reference": "urn:uuid:05efabf0-4be2-4561-91ce-51548425acb9"
        },
        "encounter": {
          "reference": "urn:uuid:b79cb3ba-745e-5d9a-8903-4a02327a7e09"
        },
        "primarySource": true
      },
      "request": {
        "method": "POST",
        "url": "Immunization"
      }
    },
    {
      "resource": {
        "resourceType": "Immunization",
        "status": "completed",
        "vaccineCode": {
          "coding": [
            {
              "system": "http://hl7.org/fhir/sid/cvx",
              "code": "140",
              "display": "Influenza, seasonal, injectable, preservative free"
            }
          ],
          "text": "Influenza, seasonal, injectable, preservative free"
        },
        "patient": {
          "reference": "urn:uuid:05efabf0-4be2-4561-91ce-51548425acb9"
        },
        "encounter": {
          "reference": "urn:uuid:b79cb3ba-745e-5d9a-8903-4a02327a7e09"
        },
        "primarySource": true
      },
      "request": {
        "method": "POST",
        "url": "Immunization"
      }
    },
    {
      "resource": {
        "resourceType": "Immunization",
        "status": "completed",
        "vaccineCode": {
          "coding": [
            {
              "system": "http://hl7.org/fhir/sid/cvx",
              "code": "113",
              "display": "Td (adult) preservative free"
            }
          ],
          "text": "Td (adult) preservative free"
        },
        "patient": {
          "reference": "urn:uuid:05efabf0-4be2-4561-91ce-51548425acb9"
        },
        "encounter": {
          "reference": "urn:uuid:fb3463a0-7d6e-54a3-bcd8-1b93388c648d"
        },
        "primarySource": true
      },
      "request": {
        "method": "POST",
        "url": "Immunization"
      }
    },
    {
      "resource": {
        "resourceType": "Immunization",
        "status": "completed",
        "vaccineCode": {
          "coding": [
            {
              "system": "http://hl7.org/fhir/sid/cvx",
              "code": "140",
              "display": "Influenza, seasonal, injectable, preservative free"
            }
          ],
          "text": "Influenza, seasonal, injectable, preservative free"
        },
        "patient": {
          "reference": "urn:uuid:05efabf0-4be2-4561-91ce-51548425acb9"
        },
        "encounter": {
          "reference": "urn:uuid:fb3463a0-7d6e-54a3-bcd8-1b93388c648d"
        },
        "primarySource": true
      },
      "request": {
        "method": "POST",
        "url": "Immunization"
      }
    },
    {
      "resource": {
        "resourceType": "Immunization",
        "status": "completed",
        "vaccineCode": {
          "coding": [
            {
              "system": "http://hl7.org/fhir/sid/cvx",
              "code": "140",
              "display": "Influenza, seasonal, injectable, preservative free"
            }
          ],
          "text": "Influenza, seasonal, injectable, preservative free"
        },
        "patient": {
          "reference": "urn:uuid:05efabf0-4be2-4561-91ce-51548425acb9"
        },
        "encounter": {
          "reference": "urn:uuid:efe7eedd-89c5-56f5-984c-0712ee41a2eb"
        },
        "primarySource": true
      },
      "request": {
        "method": "POST",
        "url": "Immunization"
      }
    },
    {
      "resource": {
        "resourceType": "Immunization",
        "status": "completed",
        "vaccineCode": {
          "coding": [
            {
              "system": "http://hl7.org/fhir/sid/cvx",
              "code": "140",
              "display": "Influenza, seasonal, injectable, preservative free"
            }
          ],
          "text": "Influenza, seasonal, injectable, preservative free"
        },
        "patient": {
          "reference": "urn:uuid:05efabf0-4be2-4561-91ce-51548425acb9"
        },
        "encounter": {
          "reference": "urn:uuid:efe7eedd-89c5-56f5-984c-0712ee41a2eb"
        },
        "primarySource": true
      },
      "request": {
        "method": "POST",
        "url": "Immunization"
      }
    },
    {
      "resource": {
        "resourceType": "Immunization",
        "status": "completed",
        "vaccineCode": {
          "coding": [
            {
              "system": "http://hl7.org/fhir/sid/cvx",
              "code": "113",
              "display": "Td (adult) preservative free"
            }
          ],
          "text": "Td (adult) preservative free"
        },
        "patient": {
          "reference": "urn:uuid:05efabf0-4be2-4561-91ce-51548425acb9"
        },
        "encounter": {
          "reference": "urn:uuid:efe7eedd-89c5-56f5-984c-0712ee41a2eb"
        },
        "primarySource": true
      },
      "request": {
        "method": "POST",
        "url": "Immunization"
      }
    },
    {
      "resource": {
        "resourceType": "MedicationRequest",
        "status": "active",
        "medicationCodeableConcept": {
          "coding": [
            {
              "system": "http://www.nlm.nih.gov/research/umls/rxnorm",
              "code": "314077",
              "display": "Lisinopril 20 MG Oral Tablet",
              "userSelected": false
            }
          ],
          "text": "Lisinopril 20 MG Oral Tablet"
        },
        "subject": {
          "reference": "urn:uuid:05efabf0-4be2-4561-91ce-51548425acb9"
        },
        "dosageInstruction": [
          {
            "text": "1 daily",
            "timing": {
              "repeat": {
                "boundsPeriod": {
                  "start": "2008-08-13T00:00:00-06:00"
                },
                "count": 0,
                "frequency": 1,
                "frequencyMax": 0,
                "period": 1,
                "periodUnit": "d"
              }
            },
            "doseAndRate": [
              {
                "doseQuantity": {
                  "value": 1,
                  "unit": "{tablet}",
                  "system": "http://unitsofmeasure.org",
                  "code": "{tablet}"
                }
              }
            ]
          }
        ],
        "dispenseRequest": {
          "numberOfRepeatsAllowed": 1,
          "quantity": {
            "value": 90,
            "unit": "{tablet}",
            "system": "http://unitsofmeasure.org",
            "code": "{tablet}"
          },
          "expectedSupplyDuration": {
            "value": 90,
            "unit": "days",
            "system": "http://unitsofmeasure.org",
            "code": "d"
          }
        }
      },
      "request": {
        "method": "POST",
        "url": "MedicationRequest"
      }
    },
    {
      "resource": {
        "resourceType": "MedicationRequest",
        "status": "active",
        "medicationCodeableConcept": {
          "coding": [
            {
              "system": "http://www.nlm.nih.gov/research/umls/rxnorm",
              "code": "404673",
              "display": "Memantine 10 MG Oral Tablet [Namenda]",
              "userSelected": false
            }
          ],
          "text": "Memantine 10 MG Oral Tablet [Namenda]"
        },
        "subject": {
          "reference": "urn:uuid:05efabf0-4be2-4561-91ce-51548425acb9"
        },
        "dosageInstruction": [
          {
            "text": "1 bid",
            "timing": {
              "repeat": {
                "boundsPeriod": {
                  "start": "2008-08-13T00:00:00-06:00"
                },
                "count": 0,
                "frequency": 2,
                "frequencyMax": 0,
                "period": 1,
                "periodUnit": "d"
              }
            },
            "doseAndRate": [
              {
                "doseQuantity": {
                  "value": 1,
                  "unit": "{tablet}",
                  "system": "http://unitsofmeasure.org",
                  "code": "{tablet}"
                }
              }
            ]
          }
        ],
        "dispenseRequest": {
          "numberOfRepeatsAllowed": 1,
          "quantity": {
            "value": 180,
            "unit": "{tablet}",
            "system": "http://unitsofmeasure.org",
            "code": "{tablet}"
          },
          "expectedSupplyDuration": {
            "value": 90,
            "unit": "days",
            "system": "http://unitsofmeasure.org",
            "code": "d"
          }
        }
      },
      "request": {
        "method": "POST",
        "url": "MedicationRequest"
      }
    },
    {
      "resource": {
        "resourceType": "MedicationRequest",
        "status": "active",
        "medicationCodeableConcept": {
          "coding": [
            {
              "system": "http://www.nlm.nih.gov/research/umls/rxnorm",
              "code": "153357",
              "display": "donepezil 10 MG Oral Tablet [Aricept]",
              "userSelected": false
            }
          ],
          "text": "donepezil 10 MG Oral Tablet [Aricept]"
        },
        "subject": {
          "reference": "urn:uuid:05efabf0-4be2-4561-91ce-51548425acb9"
        },
        "dosageInstruction": [
          {
            "text": "1 qhs",
            "timing": {
              "repeat": {
                "boundsPeriod": {
                  "start": "2008-08-14T00:00:00-06:00"
                },
                "count": 0,
                "frequency": 1,
                "frequencyMax": 0,
                "period": 1,
                "periodUnit": "d"
              }
            },
            "doseAndRate": [
              {
                "doseQuantity": {
                  "value": 1,
                  "unit": "{tablet}",
                  "system": "http://unitsofmeasure.org",
                  "code": "{tablet}"
                }
              }
            ]
          }
        ],
        "dispenseRequest": {
          "numberOfRepeatsAllowed": 1,
          "quantity": {
            "value": 90,
            "unit": "{tablet}",
            "system": "http://unitsofmeasure.org",
            "code": "{tablet}"
          },
          "expectedSupplyDuration": {
            "value": 90,
            "unit": "days",
            "system": "http://unitsofmeasure.org",
            "code": "d"
          }
        }
      },
      "request": {
        "method": "POST",
        "url": "MedicationRequest"
      }
    },
    {
      "resource": {
        "resourceType": "MedicationRequest",
        "status": "active",
        "medicationCodeableConcept": {
          "coding": [
            {
              "system": "http://www.nlm.nih.gov/research/umls/rxnorm",
              "code": "197770",
              "display": "Hydrochlorothiazide 50 MG Oral Tablet",
              "userSelected": false
            }
          ],
          "text": "Hydrochlorothiazide 50 MG Oral Tablet"
        },
        "subject": {
          "reference": "urn:uuid:05efabf0-4be2-4561-91ce-51548425acb9"
        },
        "dosageInstruction": [
          {
            "text": "1 daily",
            "timing": {
              "repeat": {
                "boundsPeriod": {
                  "start": "2008-08-14T00:00:00-06:00"
                },
                "count": 0,
                "frequency": 1,
                "frequencyMax": 0,
                "period": 1,
                "periodUnit": "d"
              }
            },
            "doseAndRate": [
              {
                "doseQuantity": {
                  "value": 1,
                  "unit": "{tablet}",
                  "system": "http://unitsofmeasure.org",
                  "code": "{tablet}"
                }
              }
            ]
          }
        ],
        "dispenseRequest": {
          "numberOfRepeatsAllowed": 1,
          "quantity": {
            "value": 90,
            "unit": "{tablet}",
            "system": "http://unitsofmeasure.org",
            "code": "{tablet}"
          },
          "expectedSupplyDuration": {
            "value": 90,
            "unit": "days",
            "system": "http://unitsofmeasure.org",
            "code": "d"
          }
        }
      },
      "request": {
        "method": "POST",
        "url": "MedicationRequest"
      }
    },
    {
      "resource": {
        "resourceType": "MedicationRequest",
        "status": "active",
        "medicationCodeableConcept": {
          "coding": [
            {
              "system": "http://www.nlm.nih.gov/research/umls/rxnorm",
              "code": "199381",
              "display": "potassium citrate 10 MEQ Extended Release Tablet",
              "userSelected": false
            }
          ],
          "text": "potassium citrate 10 MEQ Extended Release Tablet"
        },
        "subject": {
          "reference": "urn:uuid:05efabf0-4be2-4561-91ce-51548425acb9"
        },
        "dosageInstruction": [
          {
            "text": "1 daily",
            "timing": {
              "repeat": {
                "boundsPeriod": {
                  "start": "2008-09-30T00:00:00-06:00"
                },
                "count": 0,
                "frequency": 1,
                "frequencyMax": 0,
                "period": 1,
                "periodUnit": "d"
              }
            },
            "doseAndRate": [
              {
                "doseQuantity": {
                  "value": 1,
                  "unit": "{tablet}",
                  "system": "http://unitsofmeasure.org",
                  "code": "{tablet}"
                }
              }
            ]
          }
        ],
        "dispenseRequest": {
          "numberOfRepeatsAllowed": 1,
          "quantity": {
            "value": 200,
            "unit": "{tablet}",
            "system": "http://unitsofmeasure.org",
            "code": "{tablet}"
          },
          "expectedSupplyDuration": {
            "value": 90,
            "unit": "days",
            "system": "http://unitsofmeasure.org",
            "code": "d"
          }
        }
      },
      "request": {
        "method": "POST",
        "url": "MedicationRequest"
      }
    }
  ]
}